ID,group,item.number,item,spelling.learned,reduction.type,pronunciation,button.pressedd,correct,RT,trial,spellingTest.answer,spelling.correct
CN01,Canonical_None,99,bliddus,none,flap,"New words, trained pronunciation",1,1,863,117,,
CN01,Canonical_None,124,bredenno,canonical,nasal,"New words, trained pronunciation",4,0,2333,74,,
CN01,Canonical_None,110,bunnow,none,nasal,"New words, trained pronunciation",1,1,1197,3,,
CN01,Canonical_None,96,byddo,canonical,flap,"New words, trained pronunciation",1,1,4614,103,,
CN01,Canonical_None,98,cluddee,none,flap,"New words, trained pronunciation",1,1,823,5,,
CN01,Canonical_None,125,credenner,none,nasal,"New words, trained pronunciation",1,1,1133,86,,
CN01,Canonical_None,121,cynnergus,none,nasal,"New words, trained pronunciation",1,1,897,71,,
CN01,Canonical_None,101,fluddow,none,flap,"New words, trained pronunciation",1,1,846,79,,
CN01,Canonical_None,111,gleanny,canonical,nasal,"New words, trained pronunciation",4,0,1937,41,,
CN01,Canonical_None,105,glunner,none,nasal,"New words, trained pronunciation",1,1,819,19,,
CN01,Canonical_None,127,lucrunny,none,nasal,"New words, trained pronunciation",1,1,1514,94,,
CN01,Canonical_None,113,piddery,canonical,flap,"New words, trained pronunciation",4,0,912,82,,
CN01,Canonical_None,116,pribeddy,none,flap,"New words, trained pronunciation",1,1,826,93,,
CN01,Canonical_None,107,prounner,none,nasal,"New words, trained pronunciation",1,1,989,24,,
CN01,Canonical_None,100,ruddow,canonical,flap,"New words, trained pronunciation",1,1,1136,115,,
CN01,Canonical_None,119,sceaneddy,canonical,flap,"New words, trained pronunciation",4,0,1407,21,,
CN01,Canonical_None,106,senno,canonical,nasal,"New words, trained pronunciation",4,0,3760,120,,
CN01,Canonical_None,103,sleddow,canonical,flap,"New words, trained pronunciation",4,0,2707,26,,
CN01,Canonical_None,112,slyddenee,none,flap,"New words, trained pronunciation",1,1,942,97,,
CN01,Canonical_None,108,smounnus,canonical,nasal,"New words, trained pronunciation",1,1,3070,17,,
CN01,Canonical_None,120,sounnerby,canonical,nasal,"New words, trained pronunciation",1,1,3141,42,,
CN01,Canonical_None,118,spearoddus,none,flap,"New words, trained pronunciation",1,1,1146,77,,
CN01,Canonical_None,123,spennogy,none,nasal,"New words, trained pronunciation",1,1,1010,78,,
CN01,Canonical_None,126,suspinnus,canonical,nasal,"New words, trained pronunciation",1,1,2058,126,,
CN01,Canonical_None,117,trecoddus,canonical,flap,"New words, trained pronunciation",4,0,1665,70,,
CN01,Canonical_None,114,treddemus,canonical,flap,"New words, trained pronunciation",1,1,1173,80,,
CN01,Canonical_None,104,trenner,canonical,nasal,"New words, trained pronunciation",1,1,2880,88,,
CN01,Canonical_None,97,troddy,canonical,flap,"New words, trained pronunciation",1,1,3002,18,,
CN01,Canonical_None,109,trounny,none,nasal,"New words, trained pronunciation",1,1,852,123,,
CN01,Canonical_None,115,veddetus,none,flap,"New words, trained pronunciation",1,1,1039,95,,
CN01,Canonical_None,122,vinnimal,canonical,nasal,"New words, trained pronunciation",1,1,938,46,,
CN01,Canonical_None,102,vouddy,none,flap,"New words, trained pronunciation",1,1,717,98,,
CN01,Canonical_None,35,blittus,none,flap,"New words, canonical pronunciation",1,0,2720,107,,
CN01,Canonical_None,60,bredento,canonical,nasal,"New words, canonical pronunciation",4,1,914,90,,0
CN01,Canonical_None,46,buntow,none,nasal,"New words, canonical pronunciation",1,0,4040,20,,
CN01,Canonical_None,32,bytto,canonical,flap,"New words, canonical pronunciation",-1,,-1,113,,0
CN01,Canonical_None,34,cluttee,none,flap,"New words, canonical pronunciation",1,0,1694,65,,
CN01,Canonical_None,61,credenter,none,nasal,"New words, canonical pronunciation",1,0,822,37,,
CN01,Canonical_None,57,cyntergus,none,nasal,"New words, canonical pronunciation",4,1,1061,101,,
CN01,Canonical_None,37,fluttow,none,flap,"New words, canonical pronunciation",4,1,2752,32,,
CN01,Canonical_None,47,gleanty,canonical,nasal,"New words, canonical pronunciation",4,1,712,125,,0
CN01,Canonical_None,41,glunter,none,nasal,"New words, canonical pronunciation",4,1,1003,111,,
CN01,Canonical_None,63,lucrunty,none,nasal,"New words, canonical pronunciation",4,1,2202,100,,
CN01,Canonical_None,49,pittery,canonical,flap,"New words, canonical pronunciation",4,1,706,104,,1
CN01,Canonical_None,52,pribetty,none,flap,"New words, canonical pronunciation",1,0,1316,34,,
CN01,Canonical_None,43,prounter,none,nasal,"New words, canonical pronunciation",1,0,679,23,,
CN01,Canonical_None,36,ruttow,canonical,flap,"New words, canonical pronunciation",1,0,2043,59,,0
CN01,Canonical_None,55,sceanetty,canonical,flap,"New words, canonical pronunciation",4,1,1502,48,,0
CN01,Canonical_None,42,sento,canonical,nasal,"New words, canonical pronunciation",1,0,1801,1,,0
CN01,Canonical_None,39,slettow,canonical,flap,"New words, canonical pronunciation",4,1,1917,9,sledo,0
CN01,Canonical_None,48,slyttenee,none,flap,"New words, canonical pronunciation",4,1,2987,96,,
CN01,Canonical_None,44,smountus,canonical,nasal,"New words, canonical pronunciation",4,1,2695,40,,0
CN01,Canonical_None,56,sounterby,canonical,nasal,"New words, canonical pronunciation",1,0,2406,10,sento,0
CN01,Canonical_None,54,spearottus,none,flap,"New words, canonical pronunciation",1,0,1027,22,,
CN01,Canonical_None,59,spentogy,none,nasal,"New words, canonical pronunciation",4,1,1222,53,,
CN01,Canonical_None,62,suspintus,canonical,nasal,"New words, canonical pronunciation",1,0,2970,38,,0
CN01,Canonical_None,53,trecottus,canonical,flap,"New words, canonical pronunciation",4,1,1183,119,,0
CN01,Canonical_None,40,trenter,canonical,nasal,"New words, canonical pronunciation",4,1,1440,49,,0
CN01,Canonical_None,50,trettemus,canonical,flap,"New words, canonical pronunciation",4,1,3352,69,,0
CN01,Canonical_None,33,trotty,canonical,flap,"New words, canonical pronunciation",4,1,1155,116,,0
CN01,Canonical_None,45,trounty,none,nasal,"New words, canonical pronunciation",4,1,3913,110,,
CN01,Canonical_None,51,vettetus,none,flap,"New words, canonical pronunciation",1,0,1760,67,,
CN01,Canonical_None,58,vintimal,canonical,nasal,"New words, canonical pronunciation",4,1,1410,35,veany,0
CN01,Canonical_None,38,voutty,none,flap,"New words, canonical pronunciation",4,1,1286,106,,
CN01,Canonical_None,64,abron,,,Nonwords,4,1,1328,124,,
CN01,Canonical_None,65,balloom,,,Nonwords,1,0,731,99,,
CN01,Canonical_None,68,bashketball,,,Nonwords,4,1,840,62,,
CN01,Canonical_None,83,bencil,,,Nonwords,4,1,1024,91,,
CN01,Canonical_None,84,briest,,,Nonwords,4,1,1041,29,,
CN01,Canonical_None,70,cabimet,,,Nonwords,4,1,1543,114,,
CN01,Canonical_None,71,cassier,,,Nonwords,1,0,1465,8,,
CN01,Canonical_None,72,crame,,,Nonwords,4,1,2144,13,,
CN01,Canonical_None,73,dansher,,,Nonwords,4,1,812,92,,
CN01,Canonical_None,74,feshtival,,,Nonwords,4,1,3026,56,,
CN01,Canonical_None,75,fiss,,,Nonwords,4,1,710,45,,
CN01,Canonical_None,76,glash,,,Nonwords,4,1,941,64,,
CN01,Canonical_None,77,grabe,,,Nonwords,4,1,852,28,,
CN01,Canonical_None,78,han,,,Nonwords,4,1,1132,25,,
CN01,Canonical_None,79,herpivore,,,Nonwords,1,0,1205,54,,
CN01,Canonical_None,80,nechanic,,,Nonwords,4,1,1075,31,,
CN01,Canonical_None,81,nushroom,,,Nonwords,4,1,893,27,,
CN01,Canonical_None,82,palashe,,,Nonwords,4,1,1799,55,,
CN01,Canonical_None,66,pank,,,Nonwords,4,1,973,6,,
CN01,Canonical_None,67,parrel,,,Nonwords,4,1,1066,63,,
CN01,Canonical_None,69,prain,,,Nonwords,4,1,3599,0,,
CN01,Canonical_None,85,reshtaurant,,,Nonwords,1,0,1150,36,,
CN01,Canonical_None,86,ruppish,,,Nonwords,4,1,1132,68,,
CN01,Canonical_None,87,selter,,,Nonwords,4,1,1561,108,,
CN01,Canonical_None,90,shke,,,Nonwords,4,1,595,61,,
CN01,Canonical_None,88,sirt,,,Nonwords,4,1,824,75,,
CN01,Canonical_None,89,smail,,,Nonwords,4,1,1514,7,,
CN01,Canonical_None,91,spoom,,,Nonwords,4,1,1953,76,,
CN01,Canonical_None,92,sunnit,,,Nonwords,4,1,2352,118,,
CN01,Canonical_None,93,teemager,,,Nonwords,4,1,1395,14,,
CN01,Canonical_None,94,vegetaple,,,Nonwords,4,1,997,84,,
CN01,Canonical_None,95,wimdow,,,Nonwords,4,1,1464,83,,
CN01,Canonical_None,0,apron,,,Familiar words,1,1,751,50,,
CN01,Canonical_None,1,balloon,,,Familiar words,1,1,873,33,,
CN01,Canonical_None,2,bank,,,Familiar words,1,1,2266,109,,
CN01,Canonical_None,3,barrel,,,Familiar words,1,1,937,16,,
CN01,Canonical_None,4,basketball,,,Familiar words,1,1,1203,2,,
CN01,Canonical_None,5,brain,,,Familiar words,1,1,681,47,,
CN01,Canonical_None,6,cabinet,,,Familiar words,1,1,1202,73,,
CN01,Canonical_None,7,cashier,,,Familiar words,1,1,953,12,,
CN01,Canonical_None,8,crane,,,Familiar words,1,1,773,43,,
CN01,Canonical_None,9,dancer,,,Familiar words,1,1,933,15,,
CN01,Canonical_None,10,festival,,,Familiar words,1,1,1134,122,,
CN01,Canonical_None,11,fish,,,Familiar words,1,1,1491,39,,
CN01,Canonical_None,12,glass,,,Familiar words,1,1,810,58,,
CN01,Canonical_None,13,grape,,,Familiar words,1,1,935,11,,
CN01,Canonical_None,14,ham,,,Familiar words,1,1,1407,102,,
CN01,Canonical_None,15,herbivore,,,Familiar words,1,1,1106,57,,
CN01,Canonical_None,16,mechanic,,,Familiar words,1,1,946,112,,
CN01,Canonical_None,17,mushroom,,,Familiar words,1,1,947,4,,
CN01,Canonical_None,18,palace,,,Familiar words,1,1,1090,81,,
CN01,Canonical_None,19,pencil,,,Familiar words,1,1,768,30,,
CN01,Canonical_None,20,priest,,,Familiar words,1,1,1116,105,,
CN01,Canonical_None,21,restaurant,,,Familiar words,1,1,928,127,,
CN01,Canonical_None,22,rubbish,,,Familiar words,1,1,1071,44,,
CN01,Canonical_None,23,shelter,,,Familiar words,1,1,1519,121,,
CN01,Canonical_None,24,shirt,,,Familiar words,1,1,728,72,,
CN01,Canonical_None,25,sil,,,Familiar words,1,1,1545,66,,
CN01,Canonical_None,26,ske,,,Familiar words,1,1,848,60,,
CN01,Canonical_None,27,spoon,,,Familiar words,1,1,939,87,,
CN01,Canonical_None,28,summit,,,Familiar words,1,1,2683,85,,
CN01,Canonical_None,29,teeger,,,Familiar words,1,1,781,89,,
CN01,Canonical_None,30,vegetable,,,Familiar words,1,1,1455,51,,
CN01,Canonical_None,31,window,,,Familiar words,1,1,743,52,,
CN02,Canonical_None,99,bliddus,none,flap,"New words, trained pronunciation",1,1,331,117,,
CN02,Canonical_None,124,bredenno,canonical,nasal,"New words, trained pronunciation",1,1,203,74,,
CN02,Canonical_None,110,bunnow,none,nasal,"New words, trained pronunciation",4,0,468,3,,
CN02,Canonical_None,96,byddo,canonical,flap,"New words, trained pronunciation",1,1,483,103,,
CN02,Canonical_None,98,cluddee,none,flap,"New words, trained pronunciation",1,1,731,5,,
CN02,Canonical_None,125,credenner,none,nasal,"New words, trained pronunciation",4,0,4185,86,,
CN02,Canonical_None,121,cynnergus,none,nasal,"New words, trained pronunciation",1,1,570,71,,
CN02,Canonical_None,101,fluddow,none,flap,"New words, trained pronunciation",4,0,854,79,,
CN02,Canonical_None,111,gleanny,canonical,nasal,"New words, trained pronunciation",1,1,625,41,,
CN02,Canonical_None,105,glunner,none,nasal,"New words, trained pronunciation",1,1,375,19,,
CN02,Canonical_None,127,lucrunny,none,nasal,"New words, trained pronunciation",1,1,880,94,,
CN02,Canonical_None,113,piddery,canonical,flap,"New words, trained pronunciation",4,0,2606,82,,
CN02,Canonical_None,116,pribeddy,none,flap,"New words, trained pronunciation",1,1,265,93,,
CN02,Canonical_None,107,prounner,none,nasal,"New words, trained pronunciation",1,1,1699,24,,
CN02,Canonical_None,100,ruddow,canonical,flap,"New words, trained pronunciation",1,1,1332,115,,
CN02,Canonical_None,119,sceaneddy,canonical,flap,"New words, trained pronunciation",1,1,294,21,,
CN02,Canonical_None,106,senno,canonical,nasal,"New words, trained pronunciation",4,0,260,120,,
CN02,Canonical_None,103,sleddow,canonical,flap,"New words, trained pronunciation",1,1,331,26,,
CN02,Canonical_None,112,slyddenee,none,flap,"New words, trained pronunciation",1,1,470,97,,
CN02,Canonical_None,108,smounnus,canonical,nasal,"New words, trained pronunciation",1,1,554,17,,
CN02,Canonical_None,120,sounnerby,canonical,nasal,"New words, trained pronunciation",1,1,1648,42,,
CN02,Canonical_None,118,spearoddus,none,flap,"New words, trained pronunciation",4,0,2457,77,,
CN02,Canonical_None,123,spennogy,none,nasal,"New words, trained pronunciation",4,0,417,78,,
CN02,Canonical_None,126,suspinnus,canonical,nasal,"New words, trained pronunciation",1,1,421,126,,
CN02,Canonical_None,117,trecoddus,canonical,flap,"New words, trained pronunciation",1,1,458,70,,
CN02,Canonical_None,114,treddemus,canonical,flap,"New words, trained pronunciation",4,0,472,80,,
CN02,Canonical_None,104,trenner,canonical,nasal,"New words, trained pronunciation",4,0,1226,88,,
CN02,Canonical_None,97,troddy,canonical,flap,"New words, trained pronunciation",1,1,509,18,,
CN02,Canonical_None,109,trounny,none,nasal,"New words, trained pronunciation",4,0,1254,123,,
CN02,Canonical_None,115,veddetus,none,flap,"New words, trained pronunciation",1,1,105,95,,
CN02,Canonical_None,122,vinnimal,canonical,nasal,"New words, trained pronunciation",1,1,1836,46,,
CN02,Canonical_None,102,vouddy,none,flap,"New words, trained pronunciation",1,1,577,98,,
CN02,Canonical_None,35,blittus,none,flap,"New words, canonical pronunciation",1,0,489,107,,
CN02,Canonical_None,60,bredento,canonical,nasal,"New words, canonical pronunciation",1,0,503,90,,
CN02,Canonical_None,46,buntow,none,nasal,"New words, canonical pronunciation",1,0,429,20,,
CN02,Canonical_None,32,bytto,canonical,flap,"New words, canonical pronunciation",1,0,224,113,,
CN02,Canonical_None,34,cluttee,none,flap,"New words, canonical pronunciation",1,0,1067,65,,
CN02,Canonical_None,61,credenter,none,nasal,"New words, canonical pronunciation",1,0,264,37,,
CN02,Canonical_None,57,cyntergus,none,nasal,"New words, canonical pronunciation",1,0,409,101,,
CN02,Canonical_None,37,fluttow,none,flap,"New words, canonical pronunciation",1,0,1195,32,,
CN02,Canonical_None,47,gleanty,canonical,nasal,"New words, canonical pronunciation",1,0,559,125,,
CN02,Canonical_None,41,glunter,none,nasal,"New words, canonical pronunciation",1,0,388,111,,
CN02,Canonical_None,63,lucrunty,none,nasal,"New words, canonical pronunciation",1,0,559,100,,
CN02,Canonical_None,49,pittery,canonical,flap,"New words, canonical pronunciation",1,0,315,104,,
CN02,Canonical_None,52,pribetty,none,flap,"New words, canonical pronunciation",1,0,1443,34,,
CN02,Canonical_None,43,prounter,none,nasal,"New words, canonical pronunciation",1,0,122,23,,
CN02,Canonical_None,36,ruttow,canonical,flap,"New words, canonical pronunciation",1,0,135,59,,
CN02,Canonical_None,55,sceanetty,canonical,flap,"New words, canonical pronunciation",1,0,1242,48,,
CN02,Canonical_None,42,sento,canonical,nasal,"New words, canonical pronunciation",4,1,897,1,,
CN02,Canonical_None,39,slettow,canonical,flap,"New words, canonical pronunciation",4,1,580,9,,
CN02,Canonical_None,48,slyttenee,none,flap,"New words, canonical pronunciation",1,0,169,96,,
CN02,Canonical_None,44,smountus,canonical,nasal,"New words, canonical pronunciation",1,0,737,40,,
CN02,Canonical_None,56,sounterby,canonical,nasal,"New words, canonical pronunciation",1,0,533,10,,
CN02,Canonical_None,54,spearottus,none,flap,"New words, canonical pronunciation",1,0,42,22,,
CN02,Canonical_None,59,spentogy,none,nasal,"New words, canonical pronunciation",1,0,2130,53,,
CN02,Canonical_None,62,suspintus,canonical,nasal,"New words, canonical pronunciation",1,0,2210,38,,
CN02,Canonical_None,53,trecottus,canonical,flap,"New words, canonical pronunciation",4,1,352,119,,
CN02,Canonical_None,40,trenter,canonical,nasal,"New words, canonical pronunciation",1,0,890,49,,
CN02,Canonical_None,50,trettemus,canonical,flap,"New words, canonical pronunciation",1,0,796,69,,
CN02,Canonical_None,33,trotty,canonical,flap,"New words, canonical pronunciation",1,0,460,116,,
CN02,Canonical_None,45,trounty,none,nasal,"New words, canonical pronunciation",1,0,440,110,,
CN02,Canonical_None,51,vettetus,none,flap,"New words, canonical pronunciation",1,0,915,67,,
CN02,Canonical_None,58,vintimal,canonical,nasal,"New words, canonical pronunciation",1,0,756,35,,
CN02,Canonical_None,38,voutty,none,flap,"New words, canonical pronunciation",1,0,471,106,,
CN02,Canonical_None,64,abron,,,Nonwords,1,0,500,124,,
CN02,Canonical_None,65,balloom,,,Nonwords,1,0,332,99,,
CN02,Canonical_None,68,bashketball,,,Nonwords,1,0,652,62,,
CN02,Canonical_None,83,bencil,,,Nonwords,1,0,402,91,,
CN02,Canonical_None,84,briest,,,Nonwords,1,0,587,29,,
CN02,Canonical_None,70,cabimet,,,Nonwords,1,0,299,114,,
CN02,Canonical_None,71,cassier,,,Nonwords,1,0,428,8,,
CN02,Canonical_None,72,crame,,,Nonwords,1,0,494,13,,
CN02,Canonical_None,73,dansher,,,Nonwords,1,0,228,92,,
CN02,Canonical_None,74,feshtival,,,Nonwords,1,0,531,56,,
CN02,Canonical_None,75,fiss,,,Nonwords,1,0,885,45,,
CN02,Canonical_None,76,glash,,,Nonwords,1,0,170,64,,
CN02,Canonical_None,77,grabe,,,Nonwords,4,1,619,28,,
CN02,Canonical_None,78,han,,,Nonwords,1,0,28,25,,
CN02,Canonical_None,79,herpivore,,,Nonwords,1,0,2514,54,,
CN02,Canonical_None,80,nechanic,,,Nonwords,1,0,1505,31,,
CN02,Canonical_None,81,nushroom,,,Nonwords,1,0,1723,27,,
CN02,Canonical_None,82,palashe,,,Nonwords,1,0,1095,55,,
CN02,Canonical_None,66,pank,,,Nonwords,1,0,945,6,,
CN02,Canonical_None,67,parrel,,,Nonwords,1,0,1364,63,,
CN02,Canonical_None,69,prain,,,Nonwords,1,0,2617,0,,
CN02,Canonical_None,85,reshtaurant,,,Nonwords,1,0,785,36,,
CN02,Canonical_None,86,ruppish,,,Nonwords,1,0,732,68,,
CN02,Canonical_None,87,selter,,,Nonwords,1,0,663,108,,
CN02,Canonical_None,90,shke,,,Nonwords,1,0,191,61,,
CN02,Canonical_None,88,sirt,,,Nonwords,4,1,2555,75,,
CN02,Canonical_None,89,smail,,,Nonwords,1,0,650,7,,
CN02,Canonical_None,91,spoom,,,Nonwords,1,0,2017,76,,
CN02,Canonical_None,92,sunnit,,,Nonwords,1,0,566,118,,
CN02,Canonical_None,93,teemager,,,Nonwords,1,0,431,14,,
CN02,Canonical_None,94,vegetaple,,,Nonwords,4,1,1701,84,,
CN02,Canonical_None,95,wimdow,,,Nonwords,4,1,704,83,,
CN02,Canonical_None,0,apron,,,Familiar words,1,1,1276,50,,
CN02,Canonical_None,1,balloon,,,Familiar words,1,1,1447,33,,
CN02,Canonical_None,2,bank,,,Familiar words,1,1,364,109,,
CN02,Canonical_None,3,barrel,,,Familiar words,1,1,538,16,,
CN02,Canonical_None,4,basketball,,,Familiar words,1,1,456,2,,
CN02,Canonical_None,5,brain,,,Familiar words,1,1,2138,47,,
CN02,Canonical_None,6,cabinet,,,Familiar words,1,1,210,73,,
CN02,Canonical_None,7,cashier,,,Familiar words,1,1,245,12,,
CN02,Canonical_None,8,crane,,,Familiar words,1,1,1111,43,,
CN02,Canonical_None,9,dancer,,,Familiar words,1,1,685,15,,
CN02,Canonical_None,10,festival,,,Familiar words,4,0,54,122,,
CN02,Canonical_None,11,fish,,,Familiar words,1,1,2098,39,,
CN02,Canonical_None,12,glass,,,Familiar words,1,1,1828,58,,
CN02,Canonical_None,13,grape,,,Familiar words,1,1,264,11,,
CN02,Canonical_None,14,ham,,,Familiar words,1,1,260,102,,
CN02,Canonical_None,15,herbivore,,,Familiar words,1,1,345,57,,
CN02,Canonical_None,16,mechanic,,,Familiar words,1,1,350,112,,
CN02,Canonical_None,17,mushroom,,,Familiar words,1,1,353,4,,
CN02,Canonical_None,18,palace,,,Familiar words,4,0,1364,81,,
CN02,Canonical_None,19,pencil,,,Familiar words,1,1,2118,30,,
CN02,Canonical_None,20,priest,,,Familiar words,1,1,1117,105,,
CN02,Canonical_None,21,restaurant,,,Familiar words,4,0,42,127,,
CN02,Canonical_None,22,rubbish,,,Familiar words,1,1,577,44,,
CN02,Canonical_None,23,shelter,,,Familiar words,4,0,261,121,,
CN02,Canonical_None,24,shirt,,,Familiar words,1,1,253,72,,
CN02,Canonical_None,25,sil,,,Familiar words,1,1,1333,66,,
CN02,Canonical_None,26,ske,,,Familiar words,1,1,164,60,,
CN02,Canonical_None,27,spoon,,,Familiar words,4,0,322,87,,
CN02,Canonical_None,28,summit,,,Familiar words,4,0,92,85,,
CN02,Canonical_None,29,teeger,,,Familiar words,1,1,957,89,,
CN02,Canonical_None,30,vegetable,,,Familiar words,1,1,954,51,,
CN02,Canonical_None,31,window,,,Familiar words,1,1,1373,52,,
CN03,Canonical_None,99,bliddus,none,flap,"New words, trained pronunciation",1,1,827,117,,
CN03,Canonical_None,124,bredenno,canonical,nasal,"New words, trained pronunciation",1,1,674,74,,
CN03,Canonical_None,110,bunnow,none,nasal,"New words, trained pronunciation",4,0,1386,3,,
CN03,Canonical_None,96,byddo,canonical,flap,"New words, trained pronunciation",1,1,743,103,,
CN03,Canonical_None,98,cluddee,none,flap,"New words, trained pronunciation",1,1,599,5,,
CN03,Canonical_None,125,credenner,none,nasal,"New words, trained pronunciation",1,1,691,86,,
CN03,Canonical_None,121,cynnergus,none,nasal,"New words, trained pronunciation",1,1,1364,71,,
CN03,Canonical_None,101,fluddow,none,flap,"New words, trained pronunciation",1,1,717,79,,
CN03,Canonical_None,111,gleanny,canonical,nasal,"New words, trained pronunciation",1,1,580,41,,
CN03,Canonical_None,105,glunner,none,nasal,"New words, trained pronunciation",1,1,648,19,,
CN03,Canonical_None,127,lucrunny,none,nasal,"New words, trained pronunciation",1,1,728,94,,
CN03,Canonical_None,113,piddery,canonical,flap,"New words, trained pronunciation",1,1,524,82,,
CN03,Canonical_None,116,pribeddy,none,flap,"New words, trained pronunciation",1,1,587,93,,
CN03,Canonical_None,107,prounner,none,nasal,"New words, trained pronunciation",1,1,655,24,,
CN03,Canonical_None,100,ruddow,canonical,flap,"New words, trained pronunciation",1,1,853,115,,
CN03,Canonical_None,119,sceaneddy,canonical,flap,"New words, trained pronunciation",1,1,870,21,,
CN03,Canonical_None,106,senno,canonical,nasal,"New words, trained pronunciation",1,1,641,120,,
CN03,Canonical_None,103,sleddow,canonical,flap,"New words, trained pronunciation",1,1,1271,26,,
CN03,Canonical_None,112,slyddenee,none,flap,"New words, trained pronunciation",4,0,1092,97,,
CN03,Canonical_None,108,smounnus,canonical,nasal,"New words, trained pronunciation",1,1,1068,17,,
CN03,Canonical_None,120,sounnerby,canonical,nasal,"New words, trained pronunciation",1,1,1101,42,,
CN03,Canonical_None,118,spearoddus,none,flap,"New words, trained pronunciation",1,1,841,77,,
CN03,Canonical_None,123,spennogy,none,nasal,"New words, trained pronunciation",1,1,793,78,,
CN03,Canonical_None,126,suspinnus,canonical,nasal,"New words, trained pronunciation",1,1,1003,126,,
CN03,Canonical_None,117,trecoddus,canonical,flap,"New words, trained pronunciation",1,1,1073,70,,
CN03,Canonical_None,114,treddemus,canonical,flap,"New words, trained pronunciation",1,1,677,80,,
CN03,Canonical_None,104,trenner,canonical,nasal,"New words, trained pronunciation",1,1,487,88,,
CN03,Canonical_None,97,troddy,canonical,flap,"New words, trained pronunciation",1,1,620,18,,
CN03,Canonical_None,109,trounny,none,nasal,"New words, trained pronunciation",1,1,1024,123,,
CN03,Canonical_None,115,veddetus,none,flap,"New words, trained pronunciation",1,1,714,95,,
CN03,Canonical_None,122,vinnimal,canonical,nasal,"New words, trained pronunciation",1,1,621,46,,
CN03,Canonical_None,102,vouddy,none,flap,"New words, trained pronunciation",1,1,566,98,,
CN03,Canonical_None,35,blittus,none,flap,"New words, canonical pronunciation",4,1,978,107,,
CN03,Canonical_None,60,bredento,canonical,nasal,"New words, canonical pronunciation",4,1,937,90,,
CN03,Canonical_None,46,buntow,none,nasal,"New words, canonical pronunciation",1,0,758,20,,
CN03,Canonical_None,32,bytto,canonical,flap,"New words, canonical pronunciation",1,0,764,113,,
CN03,Canonical_None,34,cluttee,none,flap,"New words, canonical pronunciation",1,0,744,65,,
CN03,Canonical_None,61,credenter,none,nasal,"New words, canonical pronunciation",1,0,750,37,,
CN03,Canonical_None,57,cyntergus,none,nasal,"New words, canonical pronunciation",4,1,1499,101,,
CN03,Canonical_None,37,fluttow,none,flap,"New words, canonical pronunciation",1,0,715,32,,
CN03,Canonical_None,47,gleanty,canonical,nasal,"New words, canonical pronunciation",1,0,755,125,,
CN03,Canonical_None,41,glunter,none,nasal,"New words, canonical pronunciation",4,1,683,111,,
CN03,Canonical_None,63,lucrunty,none,nasal,"New words, canonical pronunciation",1,0,827,100,,
CN03,Canonical_None,49,pittery,canonical,flap,"New words, canonical pronunciation",1,0,519,104,,
CN03,Canonical_None,52,pribetty,none,flap,"New words, canonical pronunciation",1,0,627,34,,
CN03,Canonical_None,43,prounter,none,nasal,"New words, canonical pronunciation",4,1,921,23,,
CN03,Canonical_None,36,ruttow,canonical,flap,"New words, canonical pronunciation",4,1,739,59,,
CN03,Canonical_None,55,sceanetty,canonical,flap,"New words, canonical pronunciation",1,0,803,48,,
CN03,Canonical_None,42,sento,canonical,nasal,"New words, canonical pronunciation",1,0,773,1,,
CN03,Canonical_None,39,slettow,canonical,flap,"New words, canonical pronunciation",1,0,828,9,,
CN03,Canonical_None,48,slyttenee,none,flap,"New words, canonical pronunciation",1,0,724,96,,
CN03,Canonical_None,44,smountus,canonical,nasal,"New words, canonical pronunciation",1,0,887,40,,
CN03,Canonical_None,56,sounterby,canonical,nasal,"New words, canonical pronunciation",4,1,1024,10,,
CN03,Canonical_None,54,spearottus,none,flap,"New words, canonical pronunciation",1,0,1021,22,,
CN03,Canonical_None,59,spentogy,none,nasal,"New words, canonical pronunciation",4,1,1114,53,,
CN03,Canonical_None,62,suspintus,canonical,nasal,"New words, canonical pronunciation",1,0,955,38,,
CN03,Canonical_None,53,trecottus,canonical,flap,"New words, canonical pronunciation",1,0,1044,119,,
CN03,Canonical_None,40,trenter,canonical,nasal,"New words, canonical pronunciation",1,0,571,49,,
CN03,Canonical_None,50,trettemus,canonical,flap,"New words, canonical pronunciation",1,0,824,69,,
CN03,Canonical_None,33,trotty,canonical,flap,"New words, canonical pronunciation",1,0,887,116,,
CN03,Canonical_None,45,trounty,none,nasal,"New words, canonical pronunciation",1,0,1234,110,,
CN03,Canonical_None,51,vettetus,none,flap,"New words, canonical pronunciation",1,0,1001,67,,
CN03,Canonical_None,58,vintimal,canonical,nasal,"New words, canonical pronunciation",4,1,887,35,,
CN03,Canonical_None,38,voutty,none,flap,"New words, canonical pronunciation",1,0,871,106,,
CN03,Canonical_None,64,abron,,,Nonwords,4,1,572,124,,
CN03,Canonical_None,65,balloom,,,Nonwords,1,0,598,99,,
CN03,Canonical_None,68,bashketball,,,Nonwords,4,1,660,62,,
CN03,Canonical_None,83,bencil,,,Nonwords,4,1,658,91,,
CN03,Canonical_None,84,briest,,,Nonwords,4,1,713,29,,
CN03,Canonical_None,70,cabimet,,,Nonwords,4,1,895,114,,
CN03,Canonical_None,71,cassier,,,Nonwords,4,1,725,8,,
CN03,Canonical_None,72,crame,,,Nonwords,4,1,827,13,,
CN03,Canonical_None,73,dansher,,,Nonwords,4,1,590,92,,
CN03,Canonical_None,74,feshtival,,,Nonwords,4,1,624,56,,
CN03,Canonical_None,75,fiss,,,Nonwords,4,1,581,45,,
CN03,Canonical_None,76,glash,,,Nonwords,4,1,560,64,,
CN03,Canonical_None,77,grabe,,,Nonwords,4,1,724,28,,
CN03,Canonical_None,78,han,,,Nonwords,4,1,1294,25,,
CN03,Canonical_None,79,herpivore,,,Nonwords,4,1,882,54,,
CN03,Canonical_None,80,nechanic,,,Nonwords,4,1,662,31,,
CN03,Canonical_None,81,nushroom,,,Nonwords,4,1,606,27,,
CN03,Canonical_None,82,palashe,,,Nonwords,4,1,701,55,,
CN03,Canonical_None,66,pank,,,Nonwords,4,1,866,6,,
CN03,Canonical_None,67,parrel,,,Nonwords,4,1,701,63,,
CN03,Canonical_None,69,prain,,,Nonwords,4,1,2298,0,,
CN03,Canonical_None,85,reshtaurant,,,Nonwords,4,1,1030,36,,
CN03,Canonical_None,86,ruppish,,,Nonwords,1,0,581,68,,
CN03,Canonical_None,87,selter,,,Nonwords,4,1,1011,108,,
CN03,Canonical_None,90,shke,,,Nonwords,4,1,671,61,,
CN03,Canonical_None,88,sirt,,,Nonwords,4,1,646,75,,
CN03,Canonical_None,89,smail,,,Nonwords,1,0,923,7,,
CN03,Canonical_None,91,spoom,,,Nonwords,4,1,1055,76,,
CN03,Canonical_None,92,sunnit,,,Nonwords,4,1,1116,118,,
CN03,Canonical_None,93,teemager,,,Nonwords,4,1,663,14,,
CN03,Canonical_None,94,vegetaple,,,Nonwords,4,1,806,84,,
CN03,Canonical_None,95,wimdow,,,Nonwords,4,1,625,83,,
CN03,Canonical_None,0,apron,,,Familiar words,4,0,538,50,,
CN03,Canonical_None,1,balloon,,,Familiar words,1,1,590,33,,
CN03,Canonical_None,2,bank,,,Familiar words,1,1,918,109,,
CN03,Canonical_None,3,barrel,,,Familiar words,1,1,733,16,,
CN03,Canonical_None,4,basketball,,,Familiar words,1,1,769,2,,
CN03,Canonical_None,5,brain,,,Familiar words,1,1,585,47,,
CN03,Canonical_None,6,cabinet,,,Familiar words,1,1,739,73,,
CN03,Canonical_None,7,cashier,,,Familiar words,1,1,713,12,,
CN03,Canonical_None,8,crane,,,Familiar words,1,1,777,43,,
CN03,Canonical_None,9,dancer,,,Familiar words,1,1,622,15,,
CN03,Canonical_None,10,festival,,,Familiar words,1,1,890,122,,
CN03,Canonical_None,11,fish,,,Familiar words,4,0,569,39,,
CN03,Canonical_None,12,glass,,,Familiar words,1,1,665,58,,
CN03,Canonical_None,13,grape,,,Familiar words,1,1,728,11,,
CN03,Canonical_None,14,ham,,,Familiar words,1,1,728,102,,
CN03,Canonical_None,15,herbivore,,,Familiar words,1,1,599,57,,
CN03,Canonical_None,16,mechanic,,,Familiar words,1,1,899,112,,
CN03,Canonical_None,17,mushroom,,,Familiar words,1,1,677,4,,
CN03,Canonical_None,18,palace,,,Familiar words,1,1,872,81,,
CN03,Canonical_None,19,pencil,,,Familiar words,1,1,590,30,,
CN03,Canonical_None,20,priest,,,Familiar words,1,1,691,105,,
CN03,Canonical_None,21,restaurant,,,Familiar words,1,1,1151,127,,
CN03,Canonical_None,22,rubbish,,,Familiar words,1,1,631,44,,
CN03,Canonical_None,23,shelter,,,Familiar words,1,1,1016,121,,
CN03,Canonical_None,24,shirt,,,Familiar words,1,1,768,72,,
CN03,Canonical_None,25,sil,,,Familiar words,1,1,692,66,,
CN03,Canonical_None,26,ske,,,Familiar words,1,1,603,60,,
CN03,Canonical_None,27,spoon,,,Familiar words,1,1,813,87,,
CN03,Canonical_None,28,summit,,,Familiar words,4,0,814,85,,
CN03,Canonical_None,29,teeger,,,Familiar words,1,1,570,89,,
CN03,Canonical_None,30,vegetable,,,Familiar words,1,1,768,51,,
CN03,Canonical_None,31,window,,,Familiar words,1,1,470,52,,
CN04,Canonical_None,99,bliddus,none,flap,"New words, trained pronunciation",1,1,1017,117,,
CN04,Canonical_None,124,bredenno,canonical,nasal,"New words, trained pronunciation",1,1,900,74,,
CN04,Canonical_None,110,bunnow,none,nasal,"New words, trained pronunciation",1,1,1084,3,,
CN04,Canonical_None,96,byddo,canonical,flap,"New words, trained pronunciation",1,1,863,103,,
CN04,Canonical_None,98,cluddee,none,flap,"New words, trained pronunciation",1,1,1141,5,,
CN04,Canonical_None,125,credenner,none,nasal,"New words, trained pronunciation",1,1,940,86,,
CN04,Canonical_None,121,cynnergus,none,nasal,"New words, trained pronunciation",1,1,1267,71,,
CN04,Canonical_None,101,fluddow,none,flap,"New words, trained pronunciation",1,1,923,79,,
CN04,Canonical_None,111,gleanny,canonical,nasal,"New words, trained pronunciation",1,1,724,41,,
CN04,Canonical_None,105,glunner,none,nasal,"New words, trained pronunciation",1,1,684,19,,
CN04,Canonical_None,127,lucrunny,none,nasal,"New words, trained pronunciation",1,1,1001,94,,
CN04,Canonical_None,113,piddery,canonical,flap,"New words, trained pronunciation",1,1,708,82,,
CN04,Canonical_None,116,pribeddy,none,flap,"New words, trained pronunciation",4,0,721,93,,
CN04,Canonical_None,107,prounner,none,nasal,"New words, trained pronunciation",1,1,573,24,,
CN04,Canonical_None,100,ruddow,canonical,flap,"New words, trained pronunciation",1,1,1011,115,,
CN04,Canonical_None,119,sceaneddy,canonical,flap,"New words, trained pronunciation",1,1,1282,21,,
CN04,Canonical_None,106,senno,canonical,nasal,"New words, trained pronunciation",1,1,867,120,,
CN04,Canonical_None,103,sleddow,canonical,flap,"New words, trained pronunciation",1,1,976,26,,
CN04,Canonical_None,112,slyddenee,none,flap,"New words, trained pronunciation",1,1,754,97,,
CN04,Canonical_None,108,smounnus,canonical,nasal,"New words, trained pronunciation",1,1,1071,17,,
CN04,Canonical_None,120,sounnerby,canonical,nasal,"New words, trained pronunciation",1,1,770,42,,
CN04,Canonical_None,118,spearoddus,none,flap,"New words, trained pronunciation",1,1,851,77,,
CN04,Canonical_None,123,spennogy,none,nasal,"New words, trained pronunciation",1,1,960,78,,
CN04,Canonical_None,126,suspinnus,canonical,nasal,"New words, trained pronunciation",1,1,1026,126,,
CN04,Canonical_None,117,trecoddus,canonical,flap,"New words, trained pronunciation",1,1,737,70,,
CN04,Canonical_None,114,treddemus,canonical,flap,"New words, trained pronunciation",1,1,704,80,,
CN04,Canonical_None,104,trenner,canonical,nasal,"New words, trained pronunciation",1,1,953,88,,
CN04,Canonical_None,97,troddy,canonical,flap,"New words, trained pronunciation",1,1,636,18,,
CN04,Canonical_None,109,trounny,none,nasal,"New words, trained pronunciation",1,1,1037,123,,
CN04,Canonical_None,115,veddetus,none,flap,"New words, trained pronunciation",1,1,1195,95,,
CN04,Canonical_None,122,vinnimal,canonical,nasal,"New words, trained pronunciation",1,1,689,46,,
CN04,Canonical_None,102,vouddy,none,flap,"New words, trained pronunciation",1,1,1194,98,,
CN04,Canonical_None,35,blittus,none,flap,"New words, canonical pronunciation",4,1,745,107,,
CN04,Canonical_None,60,bredento,canonical,nasal,"New words, canonical pronunciation",4,1,763,90,brentemus,0
CN04,Canonical_None,46,buntow,none,nasal,"New words, canonical pronunciation",4,1,1198,20,,
CN04,Canonical_None,32,bytto,canonical,flap,"New words, canonical pronunciation",4,1,937,113,,1
CN04,Canonical_None,34,cluttee,none,flap,"New words, canonical pronunciation",4,1,520,65,,
CN04,Canonical_None,61,credenter,none,nasal,"New words, canonical pronunciation",4,1,1249,37,,
CN04,Canonical_None,57,cyntergus,none,nasal,"New words, canonical pronunciation",4,1,1200,101,,
CN04,Canonical_None,37,fluttow,none,flap,"New words, canonical pronunciation",4,1,701,32,,
CN04,Canonical_None,47,gleanty,canonical,nasal,"New words, canonical pronunciation",4,1,1249,125,,1
CN04,Canonical_None,41,glunter,none,nasal,"New words, canonical pronunciation",4,1,1106,111,,
CN04,Canonical_None,63,lucrunty,none,nasal,"New words, canonical pronunciation",4,1,1556,100,,
CN04,Canonical_None,49,pittery,canonical,flap,"New words, canonical pronunciation",1,0,711,104,,1
CN04,Canonical_None,52,pribetty,none,flap,"New words, canonical pronunciation",4,1,824,34,,
CN04,Canonical_None,43,prounter,none,nasal,"New words, canonical pronunciation",1,0,885,23,,
CN04,Canonical_None,36,ruttow,canonical,flap,"New words, canonical pronunciation",4,1,854,59,,1
CN04,Canonical_None,55,sceanetty,canonical,flap,"New words, canonical pronunciation",1,0,967,48,,1
CN04,Canonical_None,42,sento,canonical,nasal,"New words, canonical pronunciation",4,1,1105,1,settow,0
CN04,Canonical_None,39,slettow,canonical,flap,"New words, canonical pronunciation",4,1,899,9,,1
CN04,Canonical_None,48,slyttenee,none,flap,"New words, canonical pronunciation",1,0,1026,96,,
CN04,Canonical_None,44,smountus,canonical,nasal,"New words, canonical pronunciation",1,0,1468,40,snoutus,0
CN04,Canonical_None,56,sounterby,canonical,nasal,"New words, canonical pronunciation",4,1,841,10,,1
CN04,Canonical_None,54,spearottus,none,flap,"New words, canonical pronunciation",4,1,1034,22,,
CN04,Canonical_None,59,spentogy,none,nasal,"New words, canonical pronunciation",4,1,1062,53,,
CN04,Canonical_None,62,suspintus,canonical,nasal,"New words, canonical pronunciation",4,1,1247,38,spinetty,0
CN04,Canonical_None,53,trecottus,canonical,flap,"New words, canonical pronunciation",1,0,1750,119,trettemus,0
CN04,Canonical_None,40,trenter,canonical,nasal,"New words, canonical pronunciation",4,1,1347,49,tritus,0
CN04,Canonical_None,50,trettemus,canonical,flap,"New words, canonical pronunciation",4,1,2252,69,,1
CN04,Canonical_None,33,trotty,canonical,flap,"New words, canonical pronunciation",1,0,940,116,,1
CN04,Canonical_None,45,trounty,none,nasal,"New words, canonical pronunciation",4,1,1057,110,,
CN04,Canonical_None,51,vettetus,none,flap,"New words, canonical pronunciation",4,1,768,67,,
CN04,Canonical_None,58,vintimal,canonical,nasal,"New words, canonical pronunciation",4,1,780,35,,1
CN04,Canonical_None,38,voutty,none,flap,"New words, canonical pronunciation",4,1,991,106,,
CN04,Canonical_None,64,abron,,,Nonwords,4,1,1296,124,,
CN04,Canonical_None,65,balloom,,,Nonwords,4,1,861,99,,
CN04,Canonical_None,68,bashketball,,,Nonwords,4,1,864,62,,
CN04,Canonical_None,83,bencil,,,Nonwords,4,1,683,91,,
CN04,Canonical_None,84,briest,,,Nonwords,4,1,1078,29,,
CN04,Canonical_None,70,cabimet,,,Nonwords,4,1,1102,114,,
CN04,Canonical_None,71,cassier,,,Nonwords,4,1,826,8,,
CN04,Canonical_None,72,crame,,,Nonwords,4,1,975,13,,
CN04,Canonical_None,73,dansher,,,Nonwords,4,1,713,92,,
CN04,Canonical_None,74,feshtival,,,Nonwords,4,1,871,56,,
CN04,Canonical_None,75,fiss,,,Nonwords,4,1,723,45,,
CN04,Canonical_None,76,glash,,,Nonwords,4,1,800,64,,
CN04,Canonical_None,77,grabe,,,Nonwords,4,1,836,28,,
CN04,Canonical_None,78,han,,,Nonwords,4,1,850,25,,
CN04,Canonical_None,79,herpivore,,,Nonwords,4,1,1304,54,,
CN04,Canonical_None,80,nechanic,,,Nonwords,4,1,870,31,,
CN04,Canonical_None,81,nushroom,,,Nonwords,4,1,768,27,,
CN04,Canonical_None,82,palashe,,,Nonwords,4,1,853,55,,
CN04,Canonical_None,66,pank,,,Nonwords,4,1,1144,6,,
CN04,Canonical_None,67,parrel,,,Nonwords,4,1,1222,63,,
CN04,Canonical_None,69,prain,,,Nonwords,4,1,3476,0,,
CN04,Canonical_None,85,reshtaurant,,,Nonwords,4,1,1037,36,,
CN04,Canonical_None,86,ruppish,,,Nonwords,4,1,523,68,,
CN04,Canonical_None,87,selter,,,Nonwords,4,1,1966,108,,
CN04,Canonical_None,90,shke,,,Nonwords,4,1,878,61,,
CN04,Canonical_None,88,sirt,,,Nonwords,4,1,1108,75,,
CN04,Canonical_None,89,smail,,,Nonwords,4,1,816,7,,
CN04,Canonical_None,91,spoom,,,Nonwords,4,1,946,76,,
CN04,Canonical_None,92,sunnit,,,Nonwords,4,1,922,118,,
CN04,Canonical_None,93,teemager,,,Nonwords,4,1,660,14,,
CN04,Canonical_None,94,vegetaple,,,Nonwords,4,1,969,84,,
CN04,Canonical_None,95,wimdow,,,Nonwords,4,1,716,83,,
CN04,Canonical_None,0,apron,,,Familiar words,1,1,587,50,,
CN04,Canonical_None,1,balloon,,,Familiar words,1,1,761,33,,
CN04,Canonical_None,2,bank,,,Familiar words,4,0,1028,109,,
CN04,Canonical_None,3,barrel,,,Familiar words,1,1,789,16,,
CN04,Canonical_None,4,basketball,,,Familiar words,1,1,1591,2,,
CN04,Canonical_None,5,brain,,,Familiar words,1,1,565,47,,
CN04,Canonical_None,6,cabinet,,,Familiar words,1,1,799,73,,
CN04,Canonical_None,7,cashier,,,Familiar words,1,1,985,12,,
CN04,Canonical_None,8,crane,,,Familiar words,1,1,668,43,,
CN04,Canonical_None,9,dancer,,,Familiar words,1,1,931,15,,
CN04,Canonical_None,10,festival,,,Familiar words,1,1,1406,122,,
CN04,Canonical_None,11,fish,,,Familiar words,1,1,704,39,,
CN04,Canonical_None,12,glass,,,Familiar words,1,1,759,58,,
CN04,Canonical_None,13,grape,,,Familiar words,1,1,791,11,,
CN04,Canonical_None,14,ham,,,Familiar words,1,1,738,102,,
CN04,Canonical_None,15,herbivore,,,Familiar words,1,1,1044,57,,
CN04,Canonical_None,16,mechanic,,,Familiar words,1,1,1120,112,,
CN04,Canonical_None,17,mushroom,,,Familiar words,1,1,975,4,,
CN04,Canonical_None,18,palace,,,Familiar words,1,1,1260,81,,
CN04,Canonical_None,19,pencil,,,Familiar words,1,1,652,30,,
CN04,Canonical_None,20,priest,,,Familiar words,1,1,933,105,,
CN04,Canonical_None,21,restaurant,,,Familiar words,1,1,858,127,,
CN04,Canonical_None,22,rubbish,,,Familiar words,1,1,562,44,,
CN04,Canonical_None,23,shelter,,,Familiar words,4,0,825,121,,
CN04,Canonical_None,24,shirt,,,Familiar words,1,1,1201,72,,
CN04,Canonical_None,25,sil,,,Familiar words,4,0,539,66,,
CN04,Canonical_None,26,ske,,,Familiar words,1,1,802,60,,
CN04,Canonical_None,27,spoon,,,Familiar words,1,1,1043,87,,
CN04,Canonical_None,28,summit,,,Familiar words,1,1,1229,85,,
CN04,Canonical_None,29,teeger,,,Familiar words,1,1,730,89,,
CN04,Canonical_None,30,vegetable,,,Familiar words,1,1,868,51,,
CN04,Canonical_None,31,window,,,Familiar words,1,1,1266,52,,
CN05,Canonical_None,99,bliddus,none,flap,"New words, trained pronunciation",1,1,625,117,,
CN05,Canonical_None,124,bredenno,canonical,nasal,"New words, trained pronunciation",1,1,740,74,,
CN05,Canonical_None,110,bunnow,none,nasal,"New words, trained pronunciation",4,0,849,3,,
CN05,Canonical_None,96,byddo,canonical,flap,"New words, trained pronunciation",1,1,1065,103,,
CN05,Canonical_None,98,cluddee,none,flap,"New words, trained pronunciation",1,1,749,5,,
CN05,Canonical_None,125,credenner,none,nasal,"New words, trained pronunciation",1,1,755,86,,
CN05,Canonical_None,121,cynnergus,none,nasal,"New words, trained pronunciation",1,1,1580,71,,
CN05,Canonical_None,101,fluddow,none,flap,"New words, trained pronunciation",1,1,725,79,,
CN05,Canonical_None,111,gleanny,canonical,nasal,"New words, trained pronunciation",1,1,531,41,,
CN05,Canonical_None,105,glunner,none,nasal,"New words, trained pronunciation",1,1,628,19,,
CN05,Canonical_None,127,lucrunny,none,nasal,"New words, trained pronunciation",1,1,946,94,,
CN05,Canonical_None,113,piddery,canonical,flap,"New words, trained pronunciation",1,1,543,82,,
CN05,Canonical_None,116,pribeddy,none,flap,"New words, trained pronunciation",1,1,967,93,,
CN05,Canonical_None,107,prounner,none,nasal,"New words, trained pronunciation",1,1,747,24,,
CN05,Canonical_None,100,ruddow,canonical,flap,"New words, trained pronunciation",1,1,598,115,,
CN05,Canonical_None,119,sceaneddy,canonical,flap,"New words, trained pronunciation",4,0,1517,21,,
CN05,Canonical_None,106,senno,canonical,nasal,"New words, trained pronunciation",1,1,1051,120,,
CN05,Canonical_None,103,sleddow,canonical,flap,"New words, trained pronunciation",1,1,930,26,,
CN05,Canonical_None,112,slyddenee,none,flap,"New words, trained pronunciation",1,1,1070,97,,
CN05,Canonical_None,108,smounnus,canonical,nasal,"New words, trained pronunciation",1,1,1183,17,,
CN05,Canonical_None,120,sounnerby,canonical,nasal,"New words, trained pronunciation",1,1,833,42,,
CN05,Canonical_None,118,spearoddus,none,flap,"New words, trained pronunciation",1,1,828,77,,
CN05,Canonical_None,123,spennogy,none,nasal,"New words, trained pronunciation",1,1,882,78,,
CN05,Canonical_None,126,suspinnus,canonical,nasal,"New words, trained pronunciation",1,1,1204,126,,
CN05,Canonical_None,117,trecoddus,canonical,flap,"New words, trained pronunciation",1,1,1127,70,,
CN05,Canonical_None,114,treddemus,canonical,flap,"New words, trained pronunciation",1,1,622,80,,
CN05,Canonical_None,104,trenner,canonical,nasal,"New words, trained pronunciation",1,1,555,88,,
CN05,Canonical_None,97,troddy,canonical,flap,"New words, trained pronunciation",1,1,687,18,,
CN05,Canonical_None,109,trounny,none,nasal,"New words, trained pronunciation",1,1,987,123,,
CN05,Canonical_None,115,veddetus,none,flap,"New words, trained pronunciation",1,1,1017,95,,
CN05,Canonical_None,122,vinnimal,canonical,nasal,"New words, trained pronunciation",1,1,692,46,,
CN05,Canonical_None,102,vouddy,none,flap,"New words, trained pronunciation",1,1,652,98,,
CN05,Canonical_None,35,blittus,none,flap,"New words, canonical pronunciation",1,0,834,107,,
CN05,Canonical_None,60,bredento,canonical,nasal,"New words, canonical pronunciation",1,0,868,90,beado,0
CN05,Canonical_None,46,buntow,none,nasal,"New words, canonical pronunciation",1,0,685,20,,
CN05,Canonical_None,32,bytto,canonical,flap,"New words, canonical pronunciation",1,0,644,113,,1
CN05,Canonical_None,34,cluttee,none,flap,"New words, canonical pronunciation",1,0,686,65,,
CN05,Canonical_None,61,credenter,none,nasal,"New words, canonical pronunciation",1,0,840,37,,
CN05,Canonical_None,57,cyntergus,none,nasal,"New words, canonical pronunciation",1,0,1070,101,,
CN05,Canonical_None,37,fluttow,none,flap,"New words, canonical pronunciation",1,0,770,32,,
CN05,Canonical_None,47,gleanty,canonical,nasal,"New words, canonical pronunciation",1,0,727,125,gleamus,0
CN05,Canonical_None,41,glunter,none,nasal,"New words, canonical pronunciation",1,0,615,111,,
CN05,Canonical_None,63,lucrunty,none,nasal,"New words, canonical pronunciation",1,0,827,100,,
CN05,Canonical_None,49,pittery,canonical,flap,"New words, canonical pronunciation",1,0,835,104,pitter,0
CN05,Canonical_None,52,pribetty,none,flap,"New words, canonical pronunciation",1,0,669,34,,
CN05,Canonical_None,43,prounter,none,nasal,"New words, canonical pronunciation",1,0,616,23,,
CN05,Canonical_None,36,ruttow,canonical,flap,"New words, canonical pronunciation",1,0,755,59,,0
CN05,Canonical_None,55,sceanetty,canonical,flap,"New words, canonical pronunciation",1,0,2233,48,,0
CN05,Canonical_None,42,sento,canonical,nasal,"New words, canonical pronunciation",4,1,2284,1,byto,0
CN05,Canonical_None,39,slettow,canonical,flap,"New words, canonical pronunciation",1,0,1796,9,,0
CN05,Canonical_None,48,slyttenee,none,flap,"New words, canonical pronunciation",1,0,1114,96,,
CN05,Canonical_None,44,smountus,canonical,nasal,"New words, canonical pronunciation",1,0,831,40,,0
CN05,Canonical_None,56,sounterby,canonical,nasal,"New words, canonical pronunciation",1,0,1157,10,somnerset,0
CN05,Canonical_None,54,spearottus,none,flap,"New words, canonical pronunciation",1,0,882,22,,
CN05,Canonical_None,59,spentogy,none,nasal,"New words, canonical pronunciation",4,1,1572,53,,
CN05,Canonical_None,62,suspintus,canonical,nasal,"New words, canonical pronunciation",1,0,939,38,,0
CN05,Canonical_None,53,trecottus,canonical,flap,"New words, canonical pronunciation",1,0,1171,119,,0
CN05,Canonical_None,40,trenter,canonical,nasal,"New words, canonical pronunciation",1,0,1111,49,,0
CN05,Canonical_None,50,trettemus,canonical,flap,"New words, canonical pronunciation",1,0,675,69,treadous,0
CN05,Canonical_None,33,trotty,canonical,flap,"New words, canonical pronunciation",1,0,596,116,glutter,0
CN05,Canonical_None,45,trounty,none,nasal,"New words, canonical pronunciation",1,0,819,110,,
CN05,Canonical_None,51,vettetus,none,flap,"New words, canonical pronunciation",1,0,818,67,,
CN05,Canonical_None,58,vintimal,canonical,nasal,"New words, canonical pronunciation",1,0,743,35,vitnial,0
CN05,Canonical_None,38,voutty,none,flap,"New words, canonical pronunciation",1,0,763,106,,
CN05,Canonical_None,64,abron,,,Nonwords,1,0,755,124,,
CN05,Canonical_None,65,balloom,,,Nonwords,1,0,641,99,,
CN05,Canonical_None,68,bashketball,,,Nonwords,1,0,920,62,,
CN05,Canonical_None,83,bencil,,,Nonwords,1,0,556,91,,
CN05,Canonical_None,84,briest,,,Nonwords,1,0,738,29,,
CN05,Canonical_None,70,cabimet,,,Nonwords,1,0,615,114,,
CN05,Canonical_None,71,cassier,,,Nonwords,1,0,1007,8,,
CN05,Canonical_None,72,crame,,,Nonwords,1,0,1417,13,,
CN05,Canonical_None,73,dansher,,,Nonwords,1,0,689,92,,
CN05,Canonical_None,74,feshtival,,,Nonwords,1,0,829,56,,
CN05,Canonical_None,75,fiss,,,Nonwords,1,0,394,45,,
CN05,Canonical_None,76,glash,,,Nonwords,1,0,596,64,,
CN05,Canonical_None,77,grabe,,,Nonwords,1,0,1134,28,,
CN05,Canonical_None,78,han,,,Nonwords,1,0,1790,25,,
CN05,Canonical_None,79,herpivore,,,Nonwords,1,0,1109,54,,
CN05,Canonical_None,80,nechanic,,,Nonwords,1,0,779,31,,
CN05,Canonical_None,81,nushroom,,,Nonwords,1,0,1070,27,,
CN05,Canonical_None,82,palashe,,,Nonwords,1,0,602,55,,
CN05,Canonical_None,66,pank,,,Nonwords,1,0,1345,6,,
CN05,Canonical_None,67,parrel,,,Nonwords,1,0,618,63,,
CN05,Canonical_None,69,prain,,,Nonwords,4,1,3816,0,,
CN05,Canonical_None,85,reshtaurant,,,Nonwords,1,0,837,36,,
CN05,Canonical_None,86,ruppish,,,Nonwords,1,0,795,68,,
CN05,Canonical_None,87,selter,,,Nonwords,1,0,1498,108,,
CN05,Canonical_None,90,shke,,,Nonwords,1,0,867,61,,
CN05,Canonical_None,88,sirt,,,Nonwords,1,0,775,75,,
CN05,Canonical_None,89,smail,,,Nonwords,1,0,1344,7,,
CN05,Canonical_None,91,spoom,,,Nonwords,1,0,647,76,,
CN05,Canonical_None,92,sunnit,,,Nonwords,1,0,915,118,,
CN05,Canonical_None,93,teemager,,,Nonwords,1,0,943,14,,
CN05,Canonical_None,94,vegetaple,,,Nonwords,1,0,786,84,,
CN05,Canonical_None,95,wimdow,,,Nonwords,1,0,832,83,,
CN05,Canonical_None,0,apron,,,Familiar words,1,1,614,50,,
CN05,Canonical_None,1,balloon,,,Familiar words,1,1,576,33,,
CN05,Canonical_None,2,bank,,,Familiar words,1,1,722,109,,
CN05,Canonical_None,3,barrel,,,Familiar words,1,1,521,16,,
CN05,Canonical_None,4,basketball,,,Familiar words,1,1,1082,2,,
CN05,Canonical_None,5,brain,,,Familiar words,1,1,438,47,,
CN05,Canonical_None,6,cabinet,,,Familiar words,1,1,650,73,,
CN05,Canonical_None,7,cashier,,,Familiar words,1,1,881,12,,
CN05,Canonical_None,8,crane,,,Familiar words,1,1,507,43,,
CN05,Canonical_None,9,dancer,,,Familiar words,1,1,619,15,,
CN05,Canonical_None,10,festival,,,Familiar words,1,1,735,122,,
CN05,Canonical_None,11,fish,,,Familiar words,1,1,473,39,,
CN05,Canonical_None,12,glass,,,Familiar words,1,1,710,58,,
CN05,Canonical_None,13,grape,,,Familiar words,1,1,805,11,,
CN05,Canonical_None,14,ham,,,Familiar words,1,1,622,102,,
CN05,Canonical_None,15,herbivore,,,Familiar words,1,1,745,57,,
CN05,Canonical_None,16,mechanic,,,Familiar words,1,1,924,112,,
CN05,Canonical_None,17,mushroom,,,Familiar words,1,1,629,4,,
CN05,Canonical_None,18,palace,,,Familiar words,1,1,571,81,,
CN05,Canonical_None,19,pencil,,,Familiar words,1,1,547,30,,
CN05,Canonical_None,20,priest,,,Familiar words,1,1,804,105,,
CN05,Canonical_None,21,restaurant,,,Familiar words,1,1,800,127,,
CN05,Canonical_None,22,rubbish,,,Familiar words,1,1,613,44,,
CN05,Canonical_None,23,shelter,,,Familiar words,1,1,980,121,,
CN05,Canonical_None,24,shirt,,,Familiar words,1,1,786,72,,
CN05,Canonical_None,25,sil,,,Familiar words,1,1,854,66,,
CN05,Canonical_None,26,ske,,,Familiar words,1,1,718,60,,
CN05,Canonical_None,27,spoon,,,Familiar words,1,1,787,87,,
CN05,Canonical_None,28,summit,,,Familiar words,1,1,825,85,,
CN05,Canonical_None,29,teeger,,,Familiar words,1,1,669,89,,
CN05,Canonical_None,30,vegetable,,,Familiar words,1,1,762,51,,
CN05,Canonical_None,31,window,,,Familiar words,1,1,650,52,,
CN06,Canonical_None,99,bliddus,none,flap,"New words, trained pronunciation",1,1,583,117,,
CN06,Canonical_None,124,bredenno,canonical,nasal,"New words, trained pronunciation",1,1,859,74,,
CN06,Canonical_None,110,bunnow,none,nasal,"New words, trained pronunciation",4,0,805,3,,
CN06,Canonical_None,96,byddo,canonical,flap,"New words, trained pronunciation",1,1,862,103,,
CN06,Canonical_None,98,cluddee,none,flap,"New words, trained pronunciation",1,1,557,5,,
CN06,Canonical_None,125,credenner,none,nasal,"New words, trained pronunciation",1,1,751,86,,
CN06,Canonical_None,121,cynnergus,none,nasal,"New words, trained pronunciation",1,1,841,71,,
CN06,Canonical_None,101,fluddow,none,flap,"New words, trained pronunciation",1,1,765,79,,
CN06,Canonical_None,111,gleanny,canonical,nasal,"New words, trained pronunciation",1,1,775,41,,
CN06,Canonical_None,105,glunner,none,nasal,"New words, trained pronunciation",1,1,657,19,,
CN06,Canonical_None,127,lucrunny,none,nasal,"New words, trained pronunciation",1,1,818,94,,
CN06,Canonical_None,113,piddery,canonical,flap,"New words, trained pronunciation",1,1,552,82,,
CN06,Canonical_None,116,pribeddy,none,flap,"New words, trained pronunciation",1,1,619,93,,
CN06,Canonical_None,107,prounner,none,nasal,"New words, trained pronunciation",1,1,972,24,,
CN06,Canonical_None,100,ruddow,canonical,flap,"New words, trained pronunciation",1,1,653,115,,
CN06,Canonical_None,119,sceaneddy,canonical,flap,"New words, trained pronunciation",1,1,756,21,,
CN06,Canonical_None,106,senno,canonical,nasal,"New words, trained pronunciation",1,1,653,120,,
CN06,Canonical_None,103,sleddow,canonical,flap,"New words, trained pronunciation",1,1,814,26,,
CN06,Canonical_None,112,slyddenee,none,flap,"New words, trained pronunciation",1,1,848,97,,
CN06,Canonical_None,108,smounnus,canonical,nasal,"New words, trained pronunciation",1,1,850,17,,
CN06,Canonical_None,120,sounnerby,canonical,nasal,"New words, trained pronunciation",1,1,860,42,,
CN06,Canonical_None,118,spearoddus,none,flap,"New words, trained pronunciation",1,1,958,77,,
CN06,Canonical_None,123,spennogy,none,nasal,"New words, trained pronunciation",1,1,858,78,,
CN06,Canonical_None,126,suspinnus,canonical,nasal,"New words, trained pronunciation",1,1,1054,126,,
CN06,Canonical_None,117,trecoddus,canonical,flap,"New words, trained pronunciation",1,1,739,70,,
CN06,Canonical_None,114,treddemus,canonical,flap,"New words, trained pronunciation",1,1,638,80,,
CN06,Canonical_None,104,trenner,canonical,nasal,"New words, trained pronunciation",1,1,564,88,,
CN06,Canonical_None,97,troddy,canonical,flap,"New words, trained pronunciation",1,1,570,18,,
CN06,Canonical_None,109,trounny,none,nasal,"New words, trained pronunciation",1,1,578,123,,
CN06,Canonical_None,115,veddetus,none,flap,"New words, trained pronunciation",1,1,769,95,,
CN06,Canonical_None,122,vinnimal,canonical,nasal,"New words, trained pronunciation",1,1,752,46,,
CN06,Canonical_None,102,vouddy,none,flap,"New words, trained pronunciation",1,1,610,98,,
CN06,Canonical_None,35,blittus,none,flap,"New words, canonical pronunciation",4,1,605,107,,
CN06,Canonical_None,60,bredento,canonical,nasal,"New words, canonical pronunciation",4,1,774,90,benetto,0
CN06,Canonical_None,46,buntow,none,nasal,"New words, canonical pronunciation",1,0,612,20,,
CN06,Canonical_None,32,bytto,canonical,flap,"New words, canonical pronunciation",1,0,607,113,,1
CN06,Canonical_None,34,cluttee,none,flap,"New words, canonical pronunciation",1,0,875,65,,
CN06,Canonical_None,61,credenter,none,nasal,"New words, canonical pronunciation",1,0,768,37,,
CN06,Canonical_None,57,cyntergus,none,nasal,"New words, canonical pronunciation",4,1,1103,101,,
CN06,Canonical_None,37,fluttow,none,flap,"New words, canonical pronunciation",1,0,671,32,,
CN06,Canonical_None,47,gleanty,canonical,nasal,"New words, canonical pronunciation",1,0,598,125,,0
CN06,Canonical_None,41,glunter,none,nasal,"New words, canonical pronunciation",1,0,837,111,,
CN06,Canonical_None,63,lucrunty,none,nasal,"New words, canonical pronunciation",4,1,1076,100,,
CN06,Canonical_None,49,pittery,canonical,flap,"New words, canonical pronunciation",1,0,652,104,,1
CN06,Canonical_None,52,pribetty,none,flap,"New words, canonical pronunciation",1,0,630,34,,
CN06,Canonical_None,43,prounter,none,nasal,"New words, canonical pronunciation",1,0,510,23,,
CN06,Canonical_None,36,ruttow,canonical,flap,"New words, canonical pronunciation",4,1,802,59,,1
CN06,Canonical_None,55,sceanetty,canonical,flap,"New words, canonical pronunciation",1,0,1057,48,,1
CN06,Canonical_None,42,sento,canonical,nasal,"New words, canonical pronunciation",1,0,1120,1,,1
CN06,Canonical_None,39,slettow,canonical,flap,"New words, canonical pronunciation",4,1,665,9,,0
CN06,Canonical_None,48,slyttenee,none,flap,"New words, canonical pronunciation",4,1,1063,96,,
CN06,Canonical_None,44,smountus,canonical,nasal,"New words, canonical pronunciation",1,0,1038,40,,0
CN06,Canonical_None,56,sounterby,canonical,nasal,"New words, canonical pronunciation",1,0,716,10,,0
CN06,Canonical_None,54,spearottus,none,flap,"New words, canonical pronunciation",4,1,1138,22,,
CN06,Canonical_None,59,spentogy,none,nasal,"New words, canonical pronunciation",4,1,1126,53,,
CN06,Canonical_None,62,suspintus,canonical,nasal,"New words, canonical pronunciation",4,1,1046,38,spintimus,0
CN06,Canonical_None,53,trecottus,canonical,flap,"New words, canonical pronunciation",1,0,651,119,,1
CN06,Canonical_None,40,trenter,canonical,nasal,"New words, canonical pronunciation",4,1,722,49,trentor,0
CN06,Canonical_None,50,trettemus,canonical,flap,"New words, canonical pronunciation",1,0,620,69,,1
CN06,Canonical_None,33,trotty,canonical,flap,"New words, canonical pronunciation",4,1,1073,116,,0
CN06,Canonical_None,45,trounty,none,nasal,"New words, canonical pronunciation",1,0,655,110,,
CN06,Canonical_None,51,vettetus,none,flap,"New words, canonical pronunciation",4,1,900,67,,
CN06,Canonical_None,58,vintimal,canonical,nasal,"New words, canonical pronunciation",4,1,818,35,,1
CN06,Canonical_None,38,voutty,none,flap,"New words, canonical pronunciation",1,0,599,106,,
CN06,Canonical_None,64,abron,,,Nonwords,4,1,590,124,,
CN06,Canonical_None,65,balloom,,,Nonwords,4,1,755,99,,
CN06,Canonical_None,68,bashketball,,,Nonwords,4,1,734,62,,
CN06,Canonical_None,83,bencil,,,Nonwords,4,1,737,91,,
CN06,Canonical_None,84,briest,,,Nonwords,4,1,784,29,,
CN06,Canonical_None,70,cabimet,,,Nonwords,4,1,769,114,,
CN06,Canonical_None,71,cassier,,,Nonwords,4,1,697,8,,
CN06,Canonical_None,72,crame,,,Nonwords,4,1,803,13,,
CN06,Canonical_None,73,dansher,,,Nonwords,4,1,644,92,,
CN06,Canonical_None,74,feshtival,,,Nonwords,4,1,627,56,,
CN06,Canonical_None,75,fiss,,,Nonwords,4,1,658,45,,
CN06,Canonical_None,76,glash,,,Nonwords,4,1,753,64,,
CN06,Canonical_None,77,grabe,,,Nonwords,4,1,656,28,,
CN06,Canonical_None,78,han,,,Nonwords,4,1,858,25,,
CN06,Canonical_None,79,herpivore,,,Nonwords,4,1,790,54,,
CN06,Canonical_None,80,nechanic,,,Nonwords,4,1,677,31,,
CN06,Canonical_None,81,nushroom,,,Nonwords,4,1,735,27,,
CN06,Canonical_None,82,palashe,,,Nonwords,4,1,766,55,,
CN06,Canonical_None,66,pank,,,Nonwords,4,1,723,6,,
CN06,Canonical_None,67,parrel,,,Nonwords,4,1,588,63,,
CN06,Canonical_None,69,prain,,,Nonwords,4,1,3132,0,,
CN06,Canonical_None,85,reshtaurant,,,Nonwords,4,1,1032,36,,
CN06,Canonical_None,86,ruppish,,,Nonwords,4,1,1002,68,,
CN06,Canonical_None,87,selter,,,Nonwords,4,1,1006,108,,
CN06,Canonical_None,90,shke,,,Nonwords,4,1,709,61,,
CN06,Canonical_None,88,sirt,,,Nonwords,4,1,679,75,,
CN06,Canonical_None,89,smail,,,Nonwords,4,1,694,7,,
CN06,Canonical_None,91,spoom,,,Nonwords,1,0,889,76,,
CN06,Canonical_None,92,sunnit,,,Nonwords,4,1,742,118,,
CN06,Canonical_None,93,teemager,,,Nonwords,4,1,719,14,,
CN06,Canonical_None,94,vegetaple,,,Nonwords,4,1,1023,84,,
CN06,Canonical_None,95,wimdow,,,Nonwords,4,1,846,83,,
CN06,Canonical_None,0,apron,,,Familiar words,1,1,708,50,,
CN06,Canonical_None,1,balloon,,,Familiar words,1,1,447,33,,
CN06,Canonical_None,2,bank,,,Familiar words,1,1,710,109,,
CN06,Canonical_None,3,barrel,,,Familiar words,1,1,495,16,,
CN06,Canonical_None,4,basketball,,,Familiar words,1,1,920,2,,
CN06,Canonical_None,5,brain,,,Familiar words,1,1,718,47,,
CN06,Canonical_None,6,cabinet,,,Familiar words,1,1,740,73,,
CN06,Canonical_None,7,cashier,,,Familiar words,1,1,754,12,,
CN06,Canonical_None,8,crane,,,Familiar words,1,1,777,43,,
CN06,Canonical_None,9,dancer,,,Familiar words,1,1,671,15,,
CN06,Canonical_None,10,festival,,,Familiar words,1,1,636,122,,
CN06,Canonical_None,11,fish,,,Familiar words,4,0,725,39,,
CN06,Canonical_None,12,glass,,,Familiar words,1,1,770,58,,
CN06,Canonical_None,13,grape,,,Familiar words,1,1,737,11,,
CN06,Canonical_None,14,ham,,,Familiar words,1,1,885,102,,
CN06,Canonical_None,15,herbivore,,,Familiar words,1,1,675,57,,
CN06,Canonical_None,16,mechanic,,,Familiar words,1,1,667,112,,
CN06,Canonical_None,17,mushroom,,,Familiar words,1,1,654,4,,
CN06,Canonical_None,18,palace,,,Familiar words,1,1,658,81,,
CN06,Canonical_None,19,pencil,,,Familiar words,1,1,573,30,,
CN06,Canonical_None,20,priest,,,Familiar words,1,1,761,105,,
CN06,Canonical_None,21,restaurant,,,Familiar words,1,1,728,127,,
CN06,Canonical_None,22,rubbish,,,Familiar words,1,1,750,44,,
CN06,Canonical_None,23,shelter,,,Familiar words,1,1,666,121,,
CN06,Canonical_None,24,shirt,,,Familiar words,1,1,926,72,,
CN06,Canonical_None,25,sil,,,Familiar words,1,1,868,66,,
CN06,Canonical_None,26,ske,,,Familiar words,1,1,972,60,,
CN06,Canonical_None,27,spoon,,,Familiar words,1,1,952,87,,
CN06,Canonical_None,28,summit,,,Familiar words,1,1,720,85,,
CN06,Canonical_None,29,teeger,,,Familiar words,1,1,712,89,,
CN06,Canonical_None,30,vegetable,,,Familiar words,1,1,958,51,,
CN06,Canonical_None,31,window,,,Familiar words,1,1,683,52,,
CN07,Canonical_None,99,bliddus,none,flap,"New words, trained pronunciation",1,1,395,117,,
CN07,Canonical_None,124,bredenno,canonical,nasal,"New words, trained pronunciation",1,1,794,74,,
CN07,Canonical_None,110,bunnow,none,nasal,"New words, trained pronunciation",1,1,551,3,,
CN07,Canonical_None,96,byddo,canonical,flap,"New words, trained pronunciation",1,1,1346,103,,
CN07,Canonical_None,98,cluddee,none,flap,"New words, trained pronunciation",1,1,525,5,,
CN07,Canonical_None,125,credenner,none,nasal,"New words, trained pronunciation",1,1,670,86,,
CN07,Canonical_None,121,cynnergus,none,nasal,"New words, trained pronunciation",1,1,785,71,,
CN07,Canonical_None,101,fluddow,none,flap,"New words, trained pronunciation",1,1,840,79,,
CN07,Canonical_None,111,gleanny,canonical,nasal,"New words, trained pronunciation",1,1,690,41,,
CN07,Canonical_None,105,glunner,none,nasal,"New words, trained pronunciation",1,1,576,19,,
CN07,Canonical_None,127,lucrunny,none,nasal,"New words, trained pronunciation",1,1,771,94,,
CN07,Canonical_None,113,piddery,canonical,flap,"New words, trained pronunciation",1,1,853,82,,
CN07,Canonical_None,116,pribeddy,none,flap,"New words, trained pronunciation",1,1,685,93,,
CN07,Canonical_None,107,prounner,none,nasal,"New words, trained pronunciation",1,1,792,24,,
CN07,Canonical_None,100,ruddow,canonical,flap,"New words, trained pronunciation",1,1,623,115,,
CN07,Canonical_None,119,sceaneddy,canonical,flap,"New words, trained pronunciation",1,1,816,21,,
CN07,Canonical_None,106,senno,canonical,nasal,"New words, trained pronunciation",1,1,762,120,,
CN07,Canonical_None,103,sleddow,canonical,flap,"New words, trained pronunciation",1,1,963,26,,
CN07,Canonical_None,112,slyddenee,none,flap,"New words, trained pronunciation",1,1,808,97,,
CN07,Canonical_None,108,smounnus,canonical,nasal,"New words, trained pronunciation",1,1,720,17,,
CN07,Canonical_None,120,sounnerby,canonical,nasal,"New words, trained pronunciation",1,1,783,42,,
CN07,Canonical_None,118,spearoddus,none,flap,"New words, trained pronunciation",1,1,907,77,,
CN07,Canonical_None,123,spennogy,none,nasal,"New words, trained pronunciation",1,1,785,78,,
CN07,Canonical_None,126,suspinnus,canonical,nasal,"New words, trained pronunciation",1,1,813,126,,
CN07,Canonical_None,117,trecoddus,canonical,flap,"New words, trained pronunciation",1,1,894,70,,
CN07,Canonical_None,114,treddemus,canonical,flap,"New words, trained pronunciation",1,1,731,80,,
CN07,Canonical_None,104,trenner,canonical,nasal,"New words, trained pronunciation",1,1,664,88,,
CN07,Canonical_None,97,troddy,canonical,flap,"New words, trained pronunciation",1,1,605,18,,
CN07,Canonical_None,109,trounny,none,nasal,"New words, trained pronunciation",1,1,636,123,,
CN07,Canonical_None,115,veddetus,none,flap,"New words, trained pronunciation",1,1,773,95,,
CN07,Canonical_None,122,vinnimal,canonical,nasal,"New words, trained pronunciation",1,1,721,46,,
CN07,Canonical_None,102,vouddy,none,flap,"New words, trained pronunciation",1,1,732,98,,
CN07,Canonical_None,35,blittus,none,flap,"New words, canonical pronunciation",1,0,649,107,,
CN07,Canonical_None,60,bredento,canonical,nasal,"New words, canonical pronunciation",1,0,544,90,,1
CN07,Canonical_None,46,buntow,none,nasal,"New words, canonical pronunciation",4,1,769,20,,
CN07,Canonical_None,32,bytto,canonical,flap,"New words, canonical pronunciation",1,0,890,113,,0
CN07,Canonical_None,34,cluttee,none,flap,"New words, canonical pronunciation",1,0,776,65,,
CN07,Canonical_None,61,credenter,none,nasal,"New words, canonical pronunciation",4,1,975,37,,
CN07,Canonical_None,57,cyntergus,none,nasal,"New words, canonical pronunciation",4,1,815,101,,
CN07,Canonical_None,37,fluttow,none,flap,"New words, canonical pronunciation",1,0,733,32,,
CN07,Canonical_None,47,gleanty,canonical,nasal,"New words, canonical pronunciation",4,1,553,125,,1
CN07,Canonical_None,41,glunter,none,nasal,"New words, canonical pronunciation",4,1,821,111,,
CN07,Canonical_None,63,lucrunty,none,nasal,"New words, canonical pronunciation",4,1,786,100,,
CN07,Canonical_None,49,pittery,canonical,flap,"New words, canonical pronunciation",4,1,841,104,,1
CN07,Canonical_None,52,pribetty,none,flap,"New words, canonical pronunciation",1,0,567,34,,
CN07,Canonical_None,43,prounter,none,nasal,"New words, canonical pronunciation",1,0,615,23,,
CN07,Canonical_None,36,ruttow,canonical,flap,"New words, canonical pronunciation",4,1,728,59,,1
CN07,Canonical_None,55,sceanetty,canonical,flap,"New words, canonical pronunciation",1,0,846,48,,1
CN07,Canonical_None,42,sento,canonical,nasal,"New words, canonical pronunciation",1,0,990,1,,1
CN07,Canonical_None,39,slettow,canonical,flap,"New words, canonical pronunciation",1,0,753,9,,1
CN07,Canonical_None,48,slyttenee,none,flap,"New words, canonical pronunciation",4,1,1030,96,,
CN07,Canonical_None,44,smountus,canonical,nasal,"New words, canonical pronunciation",4,1,970,40,,1
CN07,Canonical_None,56,sounterby,canonical,nasal,"New words, canonical pronunciation",1,0,746,10,,0
CN07,Canonical_None,54,spearottus,none,flap,"New words, canonical pronunciation",1,0,940,22,,
CN07,Canonical_None,59,spentogy,none,nasal,"New words, canonical pronunciation",1,0,1030,53,,
CN07,Canonical_None,62,suspintus,canonical,nasal,"New words, canonical pronunciation",1,0,1081,38,,0
CN07,Canonical_None,53,trecottus,canonical,flap,"New words, canonical pronunciation",1,0,954,119,,0
CN07,Canonical_None,40,trenter,canonical,nasal,"New words, canonical pronunciation",4,1,969,49,,1
CN07,Canonical_None,50,trettemus,canonical,flap,"New words, canonical pronunciation",1,0,641,69,,0
CN07,Canonical_None,33,trotty,canonical,flap,"New words, canonical pronunciation",1,0,810,116,,0
CN07,Canonical_None,45,trounty,none,nasal,"New words, canonical pronunciation",4,1,792,110,,
CN07,Canonical_None,51,vettetus,none,flap,"New words, canonical pronunciation",4,1,809,67,,
CN07,Canonical_None,58,vintimal,canonical,nasal,"New words, canonical pronunciation",1,0,726,35,,1
CN07,Canonical_None,38,voutty,none,flap,"New words, canonical pronunciation",4,1,737,106,,
CN07,Canonical_None,64,abron,,,Nonwords,4,1,533,124,,
CN07,Canonical_None,65,balloom,,,Nonwords,4,1,747,99,,
CN07,Canonical_None,68,bashketball,,,Nonwords,4,1,707,62,,
CN07,Canonical_None,83,bencil,,,Nonwords,4,1,1149,91,,
CN07,Canonical_None,84,briest,,,Nonwords,4,1,671,29,,
CN07,Canonical_None,70,cabimet,,,Nonwords,4,1,778,114,,
CN07,Canonical_None,71,cassier,,,Nonwords,4,1,911,8,,
CN07,Canonical_None,72,crame,,,Nonwords,4,1,855,13,,
CN07,Canonical_None,73,dansher,,,Nonwords,4,1,566,92,,
CN07,Canonical_None,74,feshtival,,,Nonwords,4,1,672,56,,
CN07,Canonical_None,75,fiss,,,Nonwords,4,1,563,45,,
CN07,Canonical_None,76,glash,,,Nonwords,4,1,775,64,,
CN07,Canonical_None,77,grabe,,,Nonwords,4,1,680,28,,
CN07,Canonical_None,78,han,,,Nonwords,4,1,871,25,,
CN07,Canonical_None,79,herpivore,,,Nonwords,4,1,938,54,,
CN07,Canonical_None,80,nechanic,,,Nonwords,4,1,522,31,,
CN07,Canonical_None,81,nushroom,,,Nonwords,4,1,721,27,,
CN07,Canonical_None,82,palashe,,,Nonwords,4,1,755,55,,
CN07,Canonical_None,66,pank,,,Nonwords,1,0,812,6,,
CN07,Canonical_None,67,parrel,,,Nonwords,4,1,601,63,,
CN07,Canonical_None,69,prain,,,Nonwords,1,0,2891,0,,
CN07,Canonical_None,85,reshtaurant,,,Nonwords,1,0,967,36,,
CN07,Canonical_None,86,ruppish,,,Nonwords,1,0,980,68,,
CN07,Canonical_None,87,selter,,,Nonwords,4,1,934,108,,
CN07,Canonical_None,90,shke,,,Nonwords,4,1,638,61,,
CN07,Canonical_None,88,sirt,,,Nonwords,4,1,789,75,,
CN07,Canonical_None,89,smail,,,Nonwords,1,0,725,7,,
CN07,Canonical_None,91,spoom,,,Nonwords,1,0,642,76,,
CN07,Canonical_None,92,sunnit,,,Nonwords,4,1,689,118,,
CN07,Canonical_None,93,teemager,,,Nonwords,4,1,822,14,,
CN07,Canonical_None,94,vegetaple,,,Nonwords,4,1,789,84,,
CN07,Canonical_None,95,wimdow,,,Nonwords,4,1,627,83,,
CN07,Canonical_None,0,apron,,,Familiar words,1,1,958,50,,
CN07,Canonical_None,1,balloon,,,Familiar words,1,1,567,33,,
CN07,Canonical_None,2,bank,,,Familiar words,1,1,641,109,,
CN07,Canonical_None,3,barrel,,,Familiar words,1,1,562,16,,
CN07,Canonical_None,4,basketball,,,Familiar words,1,1,863,2,,
CN07,Canonical_None,5,brain,,,Familiar words,1,1,622,47,,
CN07,Canonical_None,6,cabinet,,,Familiar words,4,0,1029,73,,
CN07,Canonical_None,7,cashier,,,Familiar words,1,1,719,12,,
CN07,Canonical_None,8,crane,,,Familiar words,1,1,714,43,,
CN07,Canonical_None,9,dancer,,,Familiar words,1,1,657,15,,
CN07,Canonical_None,10,festival,,,Familiar words,1,1,687,122,,
CN07,Canonical_None,11,fish,,,Familiar words,1,1,949,39,,
CN07,Canonical_None,12,glass,,,Familiar words,1,1,830,58,,
CN07,Canonical_None,13,grape,,,Familiar words,1,1,759,11,,
CN07,Canonical_None,14,ham,,,Familiar words,1,1,669,102,,
CN07,Canonical_None,15,herbivore,,,Familiar words,1,1,973,57,,
CN07,Canonical_None,16,mechanic,,,Familiar words,1,1,521,112,,
CN07,Canonical_None,17,mushroom,,,Familiar words,1,1,468,4,,
CN07,Canonical_None,18,palace,,,Familiar words,1,1,671,81,,
CN07,Canonical_None,19,pencil,,,Familiar words,1,1,485,30,,
CN07,Canonical_None,20,priest,,,Familiar words,1,1,1297,105,,
CN07,Canonical_None,21,restaurant,,,Familiar words,1,1,926,127,,
CN07,Canonical_None,22,rubbish,,,Familiar words,1,1,657,44,,
CN07,Canonical_None,23,shelter,,,Familiar words,1,1,883,121,,
CN07,Canonical_None,24,shirt,,,Familiar words,1,1,585,72,,
CN07,Canonical_None,25,sil,,,Familiar words,1,1,689,66,,
CN07,Canonical_None,26,ske,,,Familiar words,1,1,711,60,,
CN07,Canonical_None,27,spoon,,,Familiar words,1,1,907,87,,
CN07,Canonical_None,28,summit,,,Familiar words,1,1,969,85,,
CN07,Canonical_None,29,teeger,,,Familiar words,1,1,650,89,,
CN07,Canonical_None,30,vegetable,,,Familiar words,1,1,921,51,,
CN07,Canonical_None,31,window,,,Familiar words,1,1,685,52,,
CN08,Canonical_None,99,bliddus,none,flap,"New words, trained pronunciation",1,1,1031,117,,
CN08,Canonical_None,124,bredenno,canonical,nasal,"New words, trained pronunciation",1,1,906,74,,
CN08,Canonical_None,110,bunnow,none,nasal,"New words, trained pronunciation",1,1,987,3,,
CN08,Canonical_None,96,byddo,canonical,flap,"New words, trained pronunciation",1,1,1102,103,,
CN08,Canonical_None,98,cluddee,none,flap,"New words, trained pronunciation",1,1,934,5,,
CN08,Canonical_None,125,credenner,none,nasal,"New words, trained pronunciation",1,1,1099,86,,
CN08,Canonical_None,121,cynnergus,none,nasal,"New words, trained pronunciation",1,1,1976,71,,
CN08,Canonical_None,101,fluddow,none,flap,"New words, trained pronunciation",1,1,1677,79,,
CN08,Canonical_None,111,gleanny,canonical,nasal,"New words, trained pronunciation",4,0,2021,41,,
CN08,Canonical_None,105,glunner,none,nasal,"New words, trained pronunciation",1,1,824,19,,
CN08,Canonical_None,127,lucrunny,none,nasal,"New words, trained pronunciation",1,1,1820,94,,
CN08,Canonical_None,113,piddery,canonical,flap,"New words, trained pronunciation",1,1,1508,82,,
CN08,Canonical_None,116,pribeddy,none,flap,"New words, trained pronunciation",4,0,1281,93,,
CN08,Canonical_None,107,prounner,none,nasal,"New words, trained pronunciation",1,1,822,24,,
CN08,Canonical_None,100,ruddow,canonical,flap,"New words, trained pronunciation",1,1,746,115,,
CN08,Canonical_None,119,sceaneddy,canonical,flap,"New words, trained pronunciation",1,1,1112,21,,
CN08,Canonical_None,106,senno,canonical,nasal,"New words, trained pronunciation",1,1,763,120,,
CN08,Canonical_None,103,sleddow,canonical,flap,"New words, trained pronunciation",1,1,1844,26,,
CN08,Canonical_None,112,slyddenee,none,flap,"New words, trained pronunciation",1,1,2120,97,,
CN08,Canonical_None,108,smounnus,canonical,nasal,"New words, trained pronunciation",1,1,1167,17,,
CN08,Canonical_None,120,sounnerby,canonical,nasal,"New words, trained pronunciation",1,1,1375,42,,
CN08,Canonical_None,118,spearoddus,none,flap,"New words, trained pronunciation",1,1,1446,77,,
CN08,Canonical_None,123,spennogy,none,nasal,"New words, trained pronunciation",1,1,1084,78,,
CN08,Canonical_None,126,suspinnus,canonical,nasal,"New words, trained pronunciation",1,1,1139,126,,
CN08,Canonical_None,117,trecoddus,canonical,flap,"New words, trained pronunciation",1,1,1079,70,,
CN08,Canonical_None,114,treddemus,canonical,flap,"New words, trained pronunciation",4,0,2015,80,,
CN08,Canonical_None,104,trenner,canonical,nasal,"New words, trained pronunciation",4,0,1013,88,,
CN08,Canonical_None,97,troddy,canonical,flap,"New words, trained pronunciation",1,1,770,18,,
CN08,Canonical_None,109,trounny,none,nasal,"New words, trained pronunciation",4,0,1176,123,,
CN08,Canonical_None,115,veddetus,none,flap,"New words, trained pronunciation",1,1,1229,95,,
CN08,Canonical_None,122,vinnimal,canonical,nasal,"New words, trained pronunciation",1,1,1018,46,,
CN08,Canonical_None,102,vouddy,none,flap,"New words, trained pronunciation",1,1,1271,98,,
CN08,Canonical_None,35,blittus,none,flap,"New words, canonical pronunciation",1,0,2108,107,,
CN08,Canonical_None,60,bredento,canonical,nasal,"New words, canonical pronunciation",4,1,1134,90,ben,0
CN08,Canonical_None,46,buntow,none,nasal,"New words, canonical pronunciation",4,1,1101,20,,
CN08,Canonical_None,32,bytto,canonical,flap,"New words, canonical pronunciation",1,0,990,113,bento,0
CN08,Canonical_None,34,cluttee,none,flap,"New words, canonical pronunciation",1,0,1000,65,,
CN08,Canonical_None,61,credenter,none,nasal,"New words, canonical pronunciation",4,1,1296,37,,
CN08,Canonical_None,57,cyntergus,none,nasal,"New words, canonical pronunciation",4,1,1261,101,,
CN08,Canonical_None,37,fluttow,none,flap,"New words, canonical pronunciation",1,0,1452,32,,
CN08,Canonical_None,47,gleanty,canonical,nasal,"New words, canonical pronunciation",4,1,796,125,gentie,0
CN08,Canonical_None,41,glunter,none,nasal,"New words, canonical pronunciation",4,1,898,111,,
CN08,Canonical_None,63,lucrunty,none,nasal,"New words, canonical pronunciation",4,1,1237,100,,
CN08,Canonical_None,49,pittery,canonical,flap,"New words, canonical pronunciation",1,0,1206,104,pitty,0
CN08,Canonical_None,52,pribetty,none,flap,"New words, canonical pronunciation",4,1,1034,34,,
CN08,Canonical_None,43,prounter,none,nasal,"New words, canonical pronunciation",1,0,1431,23,,
CN08,Canonical_None,36,ruttow,canonical,flap,"New words, canonical pronunciation",1,0,814,59,rutta,0
CN08,Canonical_None,55,sceanetty,canonical,flap,"New words, canonical pronunciation",1,0,1196,48,spinti,0
CN08,Canonical_None,42,sento,canonical,nasal,"New words, canonical pronunciation",1,0,1860,1,,0
CN08,Canonical_None,39,slettow,canonical,flap,"New words, canonical pronunciation",1,0,1580,9,spin,0
CN08,Canonical_None,48,slyttenee,none,flap,"New words, canonical pronunciation",4,1,1356,96,,
CN08,Canonical_None,44,smountus,canonical,nasal,"New words, canonical pronunciation",1,0,2577,40,spain,0
CN08,Canonical_None,56,sounterby,canonical,nasal,"New words, canonical pronunciation",4,1,1171,10,sp,0
CN08,Canonical_None,54,spearottus,none,flap,"New words, canonical pronunciation",1,0,1475,22,,
CN08,Canonical_None,59,spentogy,none,nasal,"New words, canonical pronunciation",4,1,1297,53,,
CN08,Canonical_None,62,suspintus,canonical,nasal,"New words, canonical pronunciation",4,1,1355,38,spin,0
CN08,Canonical_None,53,trecottus,canonical,flap,"New words, canonical pronunciation",1,0,1282,119,tri,0
CN08,Canonical_None,40,trenter,canonical,nasal,"New words, canonical pronunciation",4,1,826,49,tr,0
CN08,Canonical_None,50,trettemus,canonical,flap,"New words, canonical pronunciation",1,0,987,69,tri,0
CN08,Canonical_None,33,trotty,canonical,flap,"New words, canonical pronunciation",1,0,917,116,triantty,0
CN08,Canonical_None,45,trounty,none,nasal,"New words, canonical pronunciation",4,1,1059,110,,
CN08,Canonical_None,51,vettetus,none,flap,"New words, canonical pronunciation",1,0,980,67,,
CN08,Canonical_None,58,vintimal,canonical,nasal,"New words, canonical pronunciation",4,1,926,35,vinumous,0
CN08,Canonical_None,38,voutty,none,flap,"New words, canonical pronunciation",1,0,1645,106,,
CN08,Canonical_None,64,abron,,,Nonwords,4,1,995,124,,
CN08,Canonical_None,65,balloom,,,Nonwords,1,0,703,99,,
CN08,Canonical_None,68,bashketball,,,Nonwords,4,1,852,62,,
CN08,Canonical_None,83,bencil,,,Nonwords,4,1,1262,91,,
CN08,Canonical_None,84,briest,,,Nonwords,4,1,1418,29,,
CN08,Canonical_None,70,cabimet,,,Nonwords,4,1,942,114,,
CN08,Canonical_None,71,cassier,,,Nonwords,4,1,1435,8,,
CN08,Canonical_None,72,crame,,,Nonwords,4,1,1188,13,,
CN08,Canonical_None,73,dansher,,,Nonwords,4,1,757,92,,
CN08,Canonical_None,74,feshtival,,,Nonwords,1,0,1730,56,,
CN08,Canonical_None,75,fiss,,,Nonwords,4,1,825,45,,
CN08,Canonical_None,76,glash,,,Nonwords,4,1,995,64,,
CN08,Canonical_None,77,grabe,,,Nonwords,4,1,1059,28,,
CN08,Canonical_None,78,han,,,Nonwords,4,1,1206,25,,
CN08,Canonical_None,79,herpivore,,,Nonwords,1,0,1231,54,,
CN08,Canonical_None,80,nechanic,,,Nonwords,4,1,1123,31,,
CN08,Canonical_None,81,nushroom,,,Nonwords,4,1,893,27,,
CN08,Canonical_None,82,palashe,,,Nonwords,4,1,1376,55,,
CN08,Canonical_None,66,pank,,,Nonwords,4,1,1297,6,,
CN08,Canonical_None,67,parrel,,,Nonwords,4,1,969,63,,
CN08,Canonical_None,69,prain,,,Nonwords,1,0,3399,0,,
CN08,Canonical_None,85,reshtaurant,,,Nonwords,4,1,1248,36,,
CN08,Canonical_None,86,ruppish,,,Nonwords,4,1,915,68,,
CN08,Canonical_None,87,selter,,,Nonwords,4,1,1374,108,,
CN08,Canonical_None,90,shke,,,Nonwords,4,1,757,61,,
CN08,Canonical_None,88,sirt,,,Nonwords,4,1,849,75,,
CN08,Canonical_None,89,smail,,,Nonwords,4,1,1459,7,,
CN08,Canonical_None,91,spoom,,,Nonwords,1,0,843,76,,
CN08,Canonical_None,92,sunnit,,,Nonwords,4,1,1007,118,,
CN08,Canonical_None,93,teemager,,,Nonwords,4,1,876,14,,
CN08,Canonical_None,94,vegetaple,,,Nonwords,4,1,958,84,,
CN08,Canonical_None,95,wimdow,,,Nonwords,4,1,1200,83,,
CN08,Canonical_None,0,apron,,,Familiar words,1,1,990,50,,
CN08,Canonical_None,1,balloon,,,Familiar words,1,1,838,33,,
CN08,Canonical_None,2,bank,,,Familiar words,1,1,1223,109,,
CN08,Canonical_None,3,barrel,,,Familiar words,1,1,747,16,,
CN08,Canonical_None,4,basketball,,,Familiar words,1,1,1351,2,,
CN08,Canonical_None,5,brain,,,Familiar words,1,1,748,47,,
CN08,Canonical_None,6,cabinet,,,Familiar words,1,1,815,73,,
CN08,Canonical_None,7,cashier,,,Familiar words,1,1,929,12,,
CN08,Canonical_None,8,crane,,,Familiar words,1,1,819,43,,
CN08,Canonical_None,9,dancer,,,Familiar words,1,1,870,15,,
CN08,Canonical_None,10,festival,,,Familiar words,1,1,735,122,,
CN08,Canonical_None,11,fish,,,Familiar words,4,0,865,39,,
CN08,Canonical_None,12,glass,,,Familiar words,1,1,1003,58,,
CN08,Canonical_None,13,grape,,,Familiar words,1,1,952,11,,
CN08,Canonical_None,14,ham,,,Familiar words,1,1,1241,102,,
CN08,Canonical_None,15,herbivore,,,Familiar words,4,0,2189,57,,
CN08,Canonical_None,16,mechanic,,,Familiar words,1,1,942,112,,
CN08,Canonical_None,17,mushroom,,,Familiar words,1,1,1129,4,,
CN08,Canonical_None,18,palace,,,Familiar words,1,1,805,81,,
CN08,Canonical_None,19,pencil,,,Familiar words,1,1,1348,30,,
CN08,Canonical_None,20,priest,,,Familiar words,1,1,836,105,,
CN08,Canonical_None,21,restaurant,,,Familiar words,1,1,804,127,,
CN08,Canonical_None,22,rubbish,,,Familiar words,1,1,937,44,,
CN08,Canonical_None,23,shelter,,,Familiar words,1,1,857,121,,
CN08,Canonical_None,24,shirt,,,Familiar words,1,1,1144,72,,
CN08,Canonical_None,25,sil,,,Familiar words,1,1,1120,66,,
CN08,Canonical_None,26,ske,,,Familiar words,1,1,1390,60,,
CN08,Canonical_None,27,spoon,,,Familiar words,1,1,1634,87,,
CN08,Canonical_None,28,summit,,,Familiar words,1,1,943,85,,
CN08,Canonical_None,29,teeger,,,Familiar words,1,1,831,89,,
CN08,Canonical_None,30,vegetable,,,Familiar words,1,1,990,51,,
CN08,Canonical_None,31,window,,,Familiar words,1,1,511,52,,
CN09,Canonical_None,99,bliddus,none,flap,"New words, trained pronunciation",1,1,714,117,,
CN09,Canonical_None,124,bredenno,canonical,nasal,"New words, trained pronunciation",1,1,937,74,,
CN09,Canonical_None,110,bunnow,none,nasal,"New words, trained pronunciation",1,1,511,3,,
CN09,Canonical_None,96,byddo,canonical,flap,"New words, trained pronunciation",1,1,910,103,,
CN09,Canonical_None,98,cluddee,none,flap,"New words, trained pronunciation",1,1,1257,5,,
CN09,Canonical_None,125,credenner,none,nasal,"New words, trained pronunciation",1,1,755,86,,
CN09,Canonical_None,121,cynnergus,none,nasal,"New words, trained pronunciation",4,0,2212,71,,
CN09,Canonical_None,101,fluddow,none,flap,"New words, trained pronunciation",1,1,598,79,,
CN09,Canonical_None,111,gleanny,canonical,nasal,"New words, trained pronunciation",1,1,2627,41,,
CN09,Canonical_None,105,glunner,none,nasal,"New words, trained pronunciation",1,1,1172,19,,
CN09,Canonical_None,127,lucrunny,none,nasal,"New words, trained pronunciation",1,1,819,94,,
CN09,Canonical_None,113,piddery,canonical,flap,"New words, trained pronunciation",1,1,795,82,,
CN09,Canonical_None,116,pribeddy,none,flap,"New words, trained pronunciation",1,1,734,93,,
CN09,Canonical_None,107,prounner,none,nasal,"New words, trained pronunciation",1,1,588,24,,
CN09,Canonical_None,100,ruddow,canonical,flap,"New words, trained pronunciation",1,1,534,115,,
CN09,Canonical_None,119,sceaneddy,canonical,flap,"New words, trained pronunciation",1,1,1522,21,,
CN09,Canonical_None,106,senno,canonical,nasal,"New words, trained pronunciation",1,1,665,120,,
CN09,Canonical_None,103,sleddow,canonical,flap,"New words, trained pronunciation",1,1,1364,26,,
CN09,Canonical_None,112,slyddenee,none,flap,"New words, trained pronunciation",1,1,1065,97,,
CN09,Canonical_None,108,smounnus,canonical,nasal,"New words, trained pronunciation",1,1,1170,17,,
CN09,Canonical_None,120,sounnerby,canonical,nasal,"New words, trained pronunciation",1,1,1301,42,,
CN09,Canonical_None,118,spearoddus,none,flap,"New words, trained pronunciation",1,1,1705,77,,
CN09,Canonical_None,123,spennogy,none,nasal,"New words, trained pronunciation",1,1,3284,78,,
CN09,Canonical_None,126,suspinnus,canonical,nasal,"New words, trained pronunciation",1,1,1085,126,,
CN09,Canonical_None,117,trecoddus,canonical,flap,"New words, trained pronunciation",1,1,968,70,,
CN09,Canonical_None,114,treddemus,canonical,flap,"New words, trained pronunciation",1,1,967,80,,
CN09,Canonical_None,104,trenner,canonical,nasal,"New words, trained pronunciation",1,1,971,88,,
CN09,Canonical_None,97,troddy,canonical,flap,"New words, trained pronunciation",1,1,968,18,,
CN09,Canonical_None,109,trounny,none,nasal,"New words, trained pronunciation",1,1,898,123,,
CN09,Canonical_None,115,veddetus,none,flap,"New words, trained pronunciation",1,1,840,95,,
CN09,Canonical_None,122,vinnimal,canonical,nasal,"New words, trained pronunciation",1,1,1052,46,,
CN09,Canonical_None,102,vouddy,none,flap,"New words, trained pronunciation",4,0,2425,98,,
CN09,Canonical_None,35,blittus,none,flap,"New words, canonical pronunciation",4,1,1689,107,,
CN09,Canonical_None,60,bredento,canonical,nasal,"New words, canonical pronunciation",1,0,1245,90,benmento,0
CN09,Canonical_None,46,buntow,none,nasal,"New words, canonical pronunciation",4,1,1329,20,,
CN09,Canonical_None,32,bytto,canonical,flap,"New words, canonical pronunciation",1,0,660,113,,1
CN09,Canonical_None,34,cluttee,none,flap,"New words, canonical pronunciation",1,0,3331,65,,
CN09,Canonical_None,61,credenter,none,nasal,"New words, canonical pronunciation",1,0,810,37,,
CN09,Canonical_None,57,cyntergus,none,nasal,"New words, canonical pronunciation",4,1,1191,101,,
CN09,Canonical_None,37,fluttow,none,flap,"New words, canonical pronunciation",1,0,570,32,,
CN09,Canonical_None,47,gleanty,canonical,nasal,"New words, canonical pronunciation",4,1,916,125,gleany,0
CN09,Canonical_None,41,glunter,none,nasal,"New words, canonical pronunciation",4,1,2574,111,,
CN09,Canonical_None,63,lucrunty,none,nasal,"New words, canonical pronunciation",4,1,3396,100,,
CN09,Canonical_None,49,pittery,canonical,flap,"New words, canonical pronunciation",1,0,968,104,,1
CN09,Canonical_None,52,pribetty,none,flap,"New words, canonical pronunciation",1,0,948,34,,
CN09,Canonical_None,43,prounter,none,nasal,"New words, canonical pronunciation",4,1,1149,23,,
CN09,Canonical_None,36,ruttow,canonical,flap,"New words, canonical pronunciation",1,0,734,59,rettow,0
CN09,Canonical_None,55,sceanetty,canonical,flap,"New words, canonical pronunciation",1,0,2491,48,sceneatty,0
CN09,Canonical_None,42,sento,canonical,nasal,"New words, canonical pronunciation",1,0,963,1,,1
CN09,Canonical_None,39,slettow,canonical,flap,"New words, canonical pronunciation",1,0,600,9,,0
CN09,Canonical_None,48,slyttenee,none,flap,"New words, canonical pronunciation",4,1,1703,96,,
CN09,Canonical_None,44,smountus,canonical,nasal,"New words, canonical pronunciation",1,0,2658,40,smenus,0
CN09,Canonical_None,56,sounterby,canonical,nasal,"New words, canonical pronunciation",1,0,1039,10,,1
CN09,Canonical_None,54,spearottus,none,flap,"New words, canonical pronunciation",1,0,1100,22,,
CN09,Canonical_None,59,spentogy,none,nasal,"New words, canonical pronunciation",4,1,1183,53,,
CN09,Canonical_None,62,suspintus,canonical,nasal,"New words, canonical pronunciation",1,0,1079,38,spinertus,0
CN09,Canonical_None,53,trecottus,canonical,flap,"New words, canonical pronunciation",1,0,834,119,trecotus,0
CN09,Canonical_None,40,trenter,canonical,nasal,"New words, canonical pronunciation",4,1,786,49,trettemus,0
CN09,Canonical_None,50,trettemus,canonical,flap,"New words, canonical pronunciation",1,0,1023,69,,0
CN09,Canonical_None,33,trotty,canonical,flap,"New words, canonical pronunciation",1,0,710,116,,1
CN09,Canonical_None,45,trounty,none,nasal,"New words, canonical pronunciation",4,1,1071,110,,
CN09,Canonical_None,51,vettetus,none,flap,"New words, canonical pronunciation",1,0,1168,67,,
CN09,Canonical_None,58,vintimal,canonical,nasal,"New words, canonical pronunciation",1,0,1320,35,ventimal,0
CN09,Canonical_None,38,voutty,none,flap,"New words, canonical pronunciation",1,0,983,106,,
CN09,Canonical_None,64,abron,,,Nonwords,4,1,601,124,,
CN09,Canonical_None,65,balloom,,,Nonwords,1,0,384,99,,
CN09,Canonical_None,68,bashketball,,,Nonwords,4,1,736,62,,
CN09,Canonical_None,83,bencil,,,Nonwords,4,1,1178,91,,
CN09,Canonical_None,84,briest,,,Nonwords,4,1,922,29,,
CN09,Canonical_None,70,cabimet,,,Nonwords,1,0,797,114,,
CN09,Canonical_None,71,cassier,,,Nonwords,1,0,1585,8,,
CN09,Canonical_None,72,crame,,,Nonwords,1,0,443,13,,
CN09,Canonical_None,73,dansher,,,Nonwords,4,1,648,92,,
CN09,Canonical_None,74,feshtival,,,Nonwords,4,1,640,56,,
CN09,Canonical_None,75,fiss,,,Nonwords,4,1,644,45,,
CN09,Canonical_None,76,glash,,,Nonwords,4,1,682,64,,
CN09,Canonical_None,77,grabe,,,Nonwords,4,1,710,28,,
CN09,Canonical_None,78,han,,,Nonwords,4,1,1296,25,,
CN09,Canonical_None,79,herpivore,,,Nonwords,4,1,1504,54,,
CN09,Canonical_None,80,nechanic,,,Nonwords,4,1,572,31,,
CN09,Canonical_None,81,nushroom,,,Nonwords,4,1,602,27,,
CN09,Canonical_None,82,palashe,,,Nonwords,4,1,768,55,,
CN09,Canonical_None,66,pank,,,Nonwords,4,1,1225,6,,
CN09,Canonical_None,67,parrel,,,Nonwords,4,1,942,63,,
CN09,Canonical_None,69,prain,,,Nonwords,4,1,3412,0,,
CN09,Canonical_None,85,reshtaurant,,,Nonwords,4,1,818,36,,
CN09,Canonical_None,86,ruppish,,,Nonwords,4,1,1194,68,,
CN09,Canonical_None,87,selter,,,Nonwords,4,1,1612,108,,
CN09,Canonical_None,90,shke,,,Nonwords,4,1,612,61,,
CN09,Canonical_None,88,sirt,,,Nonwords,4,1,1319,75,,
CN09,Canonical_None,89,smail,,,Nonwords,4,1,894,7,,
CN09,Canonical_None,91,spoom,,,Nonwords,4,1,1090,76,,
CN09,Canonical_None,92,sunnit,,,Nonwords,4,1,956,118,,
CN09,Canonical_None,93,teemager,,,Nonwords,4,1,1306,14,,
CN09,Canonical_None,94,vegetaple,,,Nonwords,4,1,892,84,,
CN09,Canonical_None,95,wimdow,,,Nonwords,4,1,775,83,,
CN09,Canonical_None,0,apron,,,Familiar words,1,1,862,50,,
CN09,Canonical_None,1,balloon,,,Familiar words,4,0,907,33,,
CN09,Canonical_None,2,bank,,,Familiar words,1,1,664,109,,
CN09,Canonical_None,3,barrel,,,Familiar words,1,1,665,16,,
CN09,Canonical_None,4,basketball,,,Familiar words,1,1,603,2,,
CN09,Canonical_None,5,brain,,,Familiar words,1,1,617,47,,
CN09,Canonical_None,6,cabinet,,,Familiar words,1,1,820,73,,
CN09,Canonical_None,7,cashier,,,Familiar words,1,1,610,12,,
CN09,Canonical_None,8,crane,,,Familiar words,1,1,739,43,,
CN09,Canonical_None,9,dancer,,,Familiar words,1,1,587,15,,
CN09,Canonical_None,10,festival,,,Familiar words,1,1,585,122,,
CN09,Canonical_None,11,fish,,,Familiar words,1,1,836,39,,
CN09,Canonical_None,12,glass,,,Familiar words,1,1,428,58,,
CN09,Canonical_None,13,grape,,,Familiar words,1,1,518,11,,
CN09,Canonical_None,14,ham,,,Familiar words,1,1,923,102,,
CN09,Canonical_None,15,herbivore,,,Familiar words,1,1,633,57,,
CN09,Canonical_None,16,mechanic,,,Familiar words,1,1,805,112,,
CN09,Canonical_None,17,mushroom,,,Familiar words,1,1,446,4,,
CN09,Canonical_None,18,palace,,,Familiar words,1,1,542,81,,
CN09,Canonical_None,19,pencil,,,Familiar words,1,1,429,30,,
CN09,Canonical_None,20,priest,,,Familiar words,1,1,840,105,,
CN09,Canonical_None,21,restaurant,,,Familiar words,1,1,754,127,,
CN09,Canonical_None,22,rubbish,,,Familiar words,1,1,784,44,,
CN09,Canonical_None,23,shelter,,,Familiar words,1,1,671,121,,
CN09,Canonical_None,24,shirt,,,Familiar words,1,1,883,72,,
CN09,Canonical_None,25,sil,,,Familiar words,1,1,965,66,,
CN09,Canonical_None,26,ske,,,Familiar words,1,1,1072,60,,
CN09,Canonical_None,27,spoon,,,Familiar words,1,1,728,87,,
CN09,Canonical_None,28,summit,,,Familiar words,1,1,794,85,,
CN09,Canonical_None,29,teeger,,,Familiar words,1,1,702,89,,
CN09,Canonical_None,30,vegetable,,,Familiar words,1,1,927,51,,
CN09,Canonical_None,31,window,,,Familiar words,1,1,654,52,,
CN10,Canonical_None,99,bliddus,none,flap,"New words, trained pronunciation",1,1,1251,117,,
CN10,Canonical_None,124,bredenno,canonical,nasal,"New words, trained pronunciation",1,1,1200,74,,
CN10,Canonical_None,110,bunnow,none,nasal,"New words, trained pronunciation",1,1,1021,3,,
CN10,Canonical_None,96,byddo,canonical,flap,"New words, trained pronunciation",1,1,1165,103,,
CN10,Canonical_None,98,cluddee,none,flap,"New words, trained pronunciation",1,1,1108,5,,
CN10,Canonical_None,125,credenner,none,nasal,"New words, trained pronunciation",1,1,1202,86,,
CN10,Canonical_None,121,cynnergus,none,nasal,"New words, trained pronunciation",1,1,1429,71,,
CN10,Canonical_None,101,fluddow,none,flap,"New words, trained pronunciation",1,1,1419,79,,
CN10,Canonical_None,111,gleanny,canonical,nasal,"New words, trained pronunciation",1,1,1169,41,,
CN10,Canonical_None,105,glunner,none,nasal,"New words, trained pronunciation",1,1,1361,19,,
CN10,Canonical_None,127,lucrunny,none,nasal,"New words, trained pronunciation",1,1,1306,94,,
CN10,Canonical_None,113,piddery,canonical,flap,"New words, trained pronunciation",1,1,1181,82,,
CN10,Canonical_None,116,pribeddy,none,flap,"New words, trained pronunciation",1,1,1804,93,,
CN10,Canonical_None,107,prounner,none,nasal,"New words, trained pronunciation",1,1,1081,24,,
CN10,Canonical_None,100,ruddow,canonical,flap,"New words, trained pronunciation",1,1,1582,115,,
CN10,Canonical_None,119,sceaneddy,canonical,flap,"New words, trained pronunciation",1,1,1424,21,,
CN10,Canonical_None,106,senno,canonical,nasal,"New words, trained pronunciation",1,1,1659,120,,
CN10,Canonical_None,103,sleddow,canonical,flap,"New words, trained pronunciation",4,0,1844,26,,
CN10,Canonical_None,112,slyddenee,none,flap,"New words, trained pronunciation",1,1,1338,97,,
CN10,Canonical_None,108,smounnus,canonical,nasal,"New words, trained pronunciation",1,1,1787,17,,
CN10,Canonical_None,120,sounnerby,canonical,nasal,"New words, trained pronunciation",1,1,1293,42,,
CN10,Canonical_None,118,spearoddus,none,flap,"New words, trained pronunciation",4,0,2170,77,,
CN10,Canonical_None,123,spennogy,none,nasal,"New words, trained pronunciation",1,1,1387,78,,
CN10,Canonical_None,126,suspinnus,canonical,nasal,"New words, trained pronunciation",1,1,1500,126,,
CN10,Canonical_None,117,trecoddus,canonical,flap,"New words, trained pronunciation",1,1,1104,70,,
CN10,Canonical_None,114,treddemus,canonical,flap,"New words, trained pronunciation",1,1,1344,80,,
CN10,Canonical_None,104,trenner,canonical,nasal,"New words, trained pronunciation",1,1,1178,88,,
CN10,Canonical_None,97,troddy,canonical,flap,"New words, trained pronunciation",1,1,1059,18,,
CN10,Canonical_None,109,trounny,none,nasal,"New words, trained pronunciation",1,1,1217,123,,
CN10,Canonical_None,115,veddetus,none,flap,"New words, trained pronunciation",1,1,1174,95,,
CN10,Canonical_None,122,vinnimal,canonical,nasal,"New words, trained pronunciation",1,1,1229,46,,
CN10,Canonical_None,102,vouddy,none,flap,"New words, trained pronunciation",1,1,1146,98,,
CN10,Canonical_None,35,blittus,none,flap,"New words, canonical pronunciation",4,1,1551,107,,
CN10,Canonical_None,60,bredento,canonical,nasal,"New words, canonical pronunciation",4,1,1204,90,,
CN10,Canonical_None,46,buntow,none,nasal,"New words, canonical pronunciation",4,1,1332,20,,
CN10,Canonical_None,32,bytto,canonical,flap,"New words, canonical pronunciation",1,0,1435,113,,
CN10,Canonical_None,34,cluttee,none,flap,"New words, canonical pronunciation",1,0,1593,65,,
CN10,Canonical_None,61,credenter,none,nasal,"New words, canonical pronunciation",4,1,1274,37,,
CN10,Canonical_None,57,cyntergus,none,nasal,"New words, canonical pronunciation",4,1,888,101,,
CN10,Canonical_None,37,fluttow,none,flap,"New words, canonical pronunciation",1,0,1499,32,,
CN10,Canonical_None,47,gleanty,canonical,nasal,"New words, canonical pronunciation",4,1,1084,125,,
CN10,Canonical_None,41,glunter,none,nasal,"New words, canonical pronunciation",4,1,1281,111,,
CN10,Canonical_None,63,lucrunty,none,nasal,"New words, canonical pronunciation",4,1,874,100,,
CN10,Canonical_None,49,pittery,canonical,flap,"New words, canonical pronunciation",1,0,1753,104,,
CN10,Canonical_None,52,pribetty,none,flap,"New words, canonical pronunciation",1,0,1187,34,,
CN10,Canonical_None,43,prounter,none,nasal,"New words, canonical pronunciation",4,1,1243,23,,
CN10,Canonical_None,36,ruttow,canonical,flap,"New words, canonical pronunciation",1,0,1416,59,,
CN10,Canonical_None,55,sceanetty,canonical,flap,"New words, canonical pronunciation",1,0,2927,48,,
CN10,Canonical_None,42,sento,canonical,nasal,"New words, canonical pronunciation",1,0,1117,1,,
CN10,Canonical_None,39,slettow,canonical,flap,"New words, canonical pronunciation",1,0,1379,9,,
CN10,Canonical_None,48,slyttenee,none,flap,"New words, canonical pronunciation",4,1,1499,96,,
CN10,Canonical_None,44,smountus,canonical,nasal,"New words, canonical pronunciation",4,1,1863,40,,
CN10,Canonical_None,56,sounterby,canonical,nasal,"New words, canonical pronunciation",4,1,1431,10,,
CN10,Canonical_None,54,spearottus,none,flap,"New words, canonical pronunciation",1,0,1366,22,,
CN10,Canonical_None,59,spentogy,none,nasal,"New words, canonical pronunciation",4,1,1554,53,,
CN10,Canonical_None,62,suspintus,canonical,nasal,"New words, canonical pronunciation",4,1,1313,38,,
CN10,Canonical_None,53,trecottus,canonical,flap,"New words, canonical pronunciation",1,0,1757,119,,
CN10,Canonical_None,40,trenter,canonical,nasal,"New words, canonical pronunciation",4,1,1221,49,,
CN10,Canonical_None,50,trettemus,canonical,flap,"New words, canonical pronunciation",1,0,1201,69,,
CN10,Canonical_None,33,trotty,canonical,flap,"New words, canonical pronunciation",1,0,1263,116,,
CN10,Canonical_None,45,trounty,none,nasal,"New words, canonical pronunciation",1,0,2123,110,,
CN10,Canonical_None,51,vettetus,none,flap,"New words, canonical pronunciation",4,1,1576,67,,
CN10,Canonical_None,58,vintimal,canonical,nasal,"New words, canonical pronunciation",4,1,1286,35,,
CN10,Canonical_None,38,voutty,none,flap,"New words, canonical pronunciation",1,0,2841,106,,
CN10,Canonical_None,64,abron,,,Nonwords,4,1,1034,124,,
CN10,Canonical_None,65,balloom,,,Nonwords,4,1,1255,99,,
CN10,Canonical_None,68,bashketball,,,Nonwords,4,1,914,62,,
CN10,Canonical_None,83,bencil,,,Nonwords,4,1,975,91,,
CN10,Canonical_None,84,briest,,,Nonwords,4,1,1054,29,,
CN10,Canonical_None,70,cabimet,,,Nonwords,4,1,1491,114,,
CN10,Canonical_None,71,cassier,,,Nonwords,4,1,1719,8,,
CN10,Canonical_None,72,crame,,,Nonwords,4,1,1212,13,,
CN10,Canonical_None,73,dansher,,,Nonwords,4,1,895,92,,
CN10,Canonical_None,74,feshtival,,,Nonwords,4,1,1038,56,,
CN10,Canonical_None,75,fiss,,,Nonwords,4,1,1054,45,,
CN10,Canonical_None,76,glash,,,Nonwords,4,1,875,64,,
CN10,Canonical_None,77,grabe,,,Nonwords,4,1,1294,28,,
CN10,Canonical_None,78,han,,,Nonwords,4,1,1248,25,,
CN10,Canonical_None,79,herpivore,,,Nonwords,4,1,1029,54,,
CN10,Canonical_None,80,nechanic,,,Nonwords,4,1,1280,31,,
CN10,Canonical_None,81,nushroom,,,Nonwords,4,1,1052,27,,
CN10,Canonical_None,82,palashe,,,Nonwords,4,1,993,55,,
CN10,Canonical_None,66,pank,,,Nonwords,1,0,2041,6,,
CN10,Canonical_None,67,parrel,,,Nonwords,4,1,810,63,,
CN10,Canonical_None,69,prain,,,Nonwords,1,0,3128,0,,
CN10,Canonical_None,85,reshtaurant,,,Nonwords,4,1,1300,36,,
CN10,Canonical_None,86,ruppish,,,Nonwords,4,1,981,68,,
CN10,Canonical_None,87,selter,,,Nonwords,4,1,2046,108,,
CN10,Canonical_None,90,shke,,,Nonwords,4,1,1011,61,,
CN10,Canonical_None,88,sirt,,,Nonwords,4,1,1105,75,,
CN10,Canonical_None,89,smail,,,Nonwords,4,1,1636,7,,
CN10,Canonical_None,91,spoom,,,Nonwords,4,1,1376,76,,
CN10,Canonical_None,92,sunnit,,,Nonwords,4,1,1424,118,,
CN10,Canonical_None,93,teemager,,,Nonwords,4,1,956,14,,
CN10,Canonical_None,94,vegetaple,,,Nonwords,4,1,978,84,,
CN10,Canonical_None,95,wimdow,,,Nonwords,4,1,1041,83,,
CN10,Canonical_None,0,apron,,,Familiar words,1,1,1143,50,,
CN10,Canonical_None,1,balloon,,,Familiar words,1,1,1288,33,,
CN10,Canonical_None,2,bank,,,Familiar words,1,1,1196,109,,
CN10,Canonical_None,3,barrel,,,Familiar words,1,1,976,16,,
CN10,Canonical_None,4,basketball,,,Familiar words,1,1,1005,2,,
CN10,Canonical_None,5,brain,,,Familiar words,1,1,1249,47,,
CN10,Canonical_None,6,cabinet,,,Familiar words,1,1,1228,73,,
CN10,Canonical_None,7,cashier,,,Familiar words,1,1,1099,12,,
CN10,Canonical_None,8,crane,,,Familiar words,1,1,1218,43,,
CN10,Canonical_None,9,dancer,,,Familiar words,1,1,1246,15,,
CN10,Canonical_None,10,festival,,,Familiar words,1,1,1054,122,,
CN10,Canonical_None,11,fish,,,Familiar words,1,1,1328,39,,
CN10,Canonical_None,12,glass,,,Familiar words,1,1,1141,58,,
CN10,Canonical_None,13,grape,,,Familiar words,1,1,1197,11,,
CN10,Canonical_None,14,ham,,,Familiar words,1,1,1040,102,,
CN10,Canonical_None,15,herbivore,,,Familiar words,1,1,1143,57,,
CN10,Canonical_None,16,mechanic,,,Familiar words,1,1,1394,112,,
CN10,Canonical_None,17,mushroom,,,Familiar words,1,1,876,4,,
CN10,Canonical_None,18,palace,,,Familiar words,1,1,1167,81,,
CN10,Canonical_None,19,pencil,,,Familiar words,1,1,1255,30,,
CN10,Canonical_None,20,priest,,,Familiar words,1,1,1183,105,,
CN10,Canonical_None,21,restaurant,,,Familiar words,1,1,1380,127,,
CN10,Canonical_None,22,rubbish,,,Familiar words,1,1,1348,44,,
CN10,Canonical_None,23,shelter,,,Familiar words,1,1,1335,121,,
CN10,Canonical_None,24,shirt,,,Familiar words,1,1,1194,72,,
CN10,Canonical_None,25,sil,,,Familiar words,1,1,1407,66,,
CN10,Canonical_None,26,ske,,,Familiar words,1,1,1187,60,,
CN10,Canonical_None,27,spoon,,,Familiar words,1,1,1525,87,,
CN10,Canonical_None,28,summit,,,Familiar words,1,1,1568,85,,
CN10,Canonical_None,29,teeger,,,Familiar words,1,1,1140,89,,
CN10,Canonical_None,30,vegetable,,,Familiar words,1,1,1330,51,,
CN10,Canonical_None,31,window,,,Familiar words,1,1,1164,52,,
CN11,Canonical_None,99,bliddus,none,flap,"New words, trained pronunciation",1,1,477,117,,
CN11,Canonical_None,124,bredenno,canonical,nasal,"New words, trained pronunciation",1,1,749,74,,
CN11,Canonical_None,110,bunnow,none,nasal,"New words, trained pronunciation",1,1,576,3,,
CN11,Canonical_None,96,byddo,canonical,flap,"New words, trained pronunciation",1,1,1056,103,,
CN11,Canonical_None,98,cluddee,none,flap,"New words, trained pronunciation",1,1,636,5,,
CN11,Canonical_None,125,credenner,none,nasal,"New words, trained pronunciation",1,1,672,86,,
CN11,Canonical_None,121,cynnergus,none,nasal,"New words, trained pronunciation",1,1,910,71,,
CN11,Canonical_None,101,fluddow,none,flap,"New words, trained pronunciation",1,1,663,79,,
CN11,Canonical_None,111,gleanny,canonical,nasal,"New words, trained pronunciation",1,1,576,41,,
CN11,Canonical_None,105,glunner,none,nasal,"New words, trained pronunciation",1,1,668,19,,
CN11,Canonical_None,127,lucrunny,none,nasal,"New words, trained pronunciation",1,1,739,94,,
CN11,Canonical_None,113,piddery,canonical,flap,"New words, trained pronunciation",1,1,524,82,,
CN11,Canonical_None,116,pribeddy,none,flap,"New words, trained pronunciation",1,1,636,93,,
CN11,Canonical_None,107,prounner,none,nasal,"New words, trained pronunciation",1,1,801,24,,
CN11,Canonical_None,100,ruddow,canonical,flap,"New words, trained pronunciation",1,1,602,115,,
CN11,Canonical_None,119,sceaneddy,canonical,flap,"New words, trained pronunciation",1,1,924,21,,
CN11,Canonical_None,106,senno,canonical,nasal,"New words, trained pronunciation",1,1,660,120,,
CN11,Canonical_None,103,sleddow,canonical,flap,"New words, trained pronunciation",1,1,949,26,,
CN11,Canonical_None,112,slyddenee,none,flap,"New words, trained pronunciation",1,1,868,97,,
CN11,Canonical_None,108,smounnus,canonical,nasal,"New words, trained pronunciation",1,1,910,17,,
CN11,Canonical_None,120,sounnerby,canonical,nasal,"New words, trained pronunciation",1,1,852,42,,
CN11,Canonical_None,118,spearoddus,none,flap,"New words, trained pronunciation",1,1,1061,77,,
