ID,group,item,item.number,item.duration,pronunciation,button.pressed,accuracy,RT,trial,session,spelling.learned,reduction,spelling.recalled
CN1,Canonical_None,prain,69,,Nonwords,1,0,2698,0,session 1,,,
CN1,Canonical_None,sento,42,637,"New words, canonical pronunciation",1,0,777,1,session 1,canonical,nasal,1
CN1,Canonical_None,basketball,4,,Familiar words,1,1,956,2,session 1,,,
CN1,Canonical_None,bunnow,110,568,"New words, trained pronunciation",1,1,622,3,session 1,none,nasal,
CN1,Canonical_None,mushroom,17,,Familiar words,1,1,696,4,session 1,,,
CN1,Canonical_None,cluddee,98,478,"New words, trained pronunciation",1,1,514,5,session 1,none,flap,
CN1,Canonical_None,pank,66,,Nonwords,1,0,841,6,session 1,,,
CN1,Canonical_None,smail,89,,Nonwords,1,0,1102,7,session 1,,,
CN1,Canonical_None,cassier,71,,Nonwords,1,0,804,8,session 1,,,
CN1,Canonical_None,slettow,39,630,"New words, canonical pronunciation",1,0,714,9,session 1,canonical,flap,1
CN1,Canonical_None,sounterby,56,848,"New words, canonical pronunciation",1,0,764,10,session 1,canonical,nasal,1
CN1,Canonical_None,grape,13,,Familiar words,1,1,582,11,session 1,,,
CN1,Canonical_None,cashier,7,,Familiar words,1,1,658,12,session 1,,,
CN1,Canonical_None,crame,72,,Nonwords,1,0,850,13,session 1,,,
CN1,Canonical_None,teemager,93,,Nonwords,1,0,697,14,session 1,,,
CN1,Canonical_None,dancer,9,,Familiar words,1,1,522,15,session 1,,,
CN1,Canonical_None,barrel,3,,Familiar words,1,1,442,16,session 1,,,
CN1,Canonical_None,smounnus,108,968,"New words, trained pronunciation",1,1,620,17,session 1,canonical,nasal,
CN1,Canonical_None,troddy,97,588,"New words, trained pronunciation",1,1,458,18,session 1,canonical,flap,
CN1,Canonical_None,glunner,105,546,"New words, trained pronunciation",1,1,477,19,session 1,none,nasal,
CN1,Canonical_None,buntow,46,630,"New words, canonical pronunciation",1,0,353,20,session 1,none,nasal,
CN1,Canonical_None,sceaneddy,119,937,"New words, trained pronunciation",1,1,571,21,session 1,canonical,flap,
CN1,Canonical_None,spearottus,54,1058,"New words, canonical pronunciation",1,0,650,22,session 1,none,flap,
CN1,Canonical_None,prounter,43,519,"New words, canonical pronunciation",4,1,966,23,session 1,none,nasal,
CN1,Canonical_None,prounner,107,450,"New words, trained pronunciation",1,1,564,24,session 1,none,nasal,
CN1,Canonical_None,han,78,,Nonwords,1,0,1373,25,session 1,,,
CN1,Canonical_None,sleddow,103,620,"New words, trained pronunciation",1,1,856,26,session 1,canonical,flap,
CN1,Canonical_None,nushroom,81,,Nonwords,4,1,704,27,session 1,,,
CN1,Canonical_None,grabe,77,,Nonwords,4,1,669,28,session 1,,,
CN1,Canonical_None,briest,84,,Nonwords,4,1,845,29,session 1,,,
CN1,Canonical_None,pencil,19,,Familiar words,1,1,555,30,session 1,,,
CN1,Canonical_None,nechanic,80,,Nonwords,4,1,732,31,session 1,,,
CN1,Canonical_None,fluttow,37,632,"New words, canonical pronunciation",1,0,700,32,session 1,none,flap,
CN1,Canonical_None,balloon,1,,Familiar words,1,1,626,33,session 1,,,
CN1,Canonical_None,pribetty,52,670,"New words, canonical pronunciation",1,0,734,34,session 1,none,flap,
CN1,Canonical_None,vintimal,58,680,"New words, canonical pronunciation",1,0,748,35,session 1,canonical,nasal,0
CN1,Canonical_None,reshtaurant,85,,Nonwords,1,0,762,36,session 1,,,
CN1,Canonical_None,credenter,61,710,"New words, canonical pronunciation",1,0,727,37,session 1,none,nasal,
CN1,Canonical_None,suspintus,62,1117,"New words, canonical pronunciation",1,0,961,38,session 1,canonical,nasal,1
CN1,Canonical_None,fish,11,,Familiar words,1,1,465,39,session 1,,,
CN1,Canonical_None,smountus,44,959,"New words, canonical pronunciation",1,0,656,40,session 1,canonical,nasal,0
CN1,Canonical_None,gleanny,111,521,"New words, trained pronunciation",1,1,480,41,session 1,canonical,nasal,
CN1,Canonical_None,sounnerby,120,842,"New words, trained pronunciation",1,1,798,42,session 1,canonical,nasal,
CN1,Canonical_None,crane,8,,Familiar words,1,1,564,43,session 1,,,
CN1,Canonical_None,rubbish,22,,Familiar words,1,1,702,44,session 1,,,
CN1,Canonical_None,fiss,75,,Nonwords,4,1,751,45,session 1,,,
CN1,Canonical_None,vinnimal,122,697,"New words, trained pronunciation",1,1,645,46,session 1,canonical,nasal,
CN1,Canonical_None,brain,5,,Familiar words,1,1,465,47,session 1,,,
CN1,Canonical_None,sceanetty,55,883,"New words, canonical pronunciation",1,0,680,48,session 1,canonical,flap,1
CN1,Canonical_None,trenter,40,550,"New words, canonical pronunciation",1,0,575,49,session 1,canonical,nasal,1
CN1,Canonical_None,apron,0,,Familiar words,1,1,472,50,session 1,,,
CN1,Canonical_None,vegetable,30,,Familiar words,1,1,702,51,session 1,,,
CN1,Canonical_None,window,31,,Familiar words,1,1,471,52,session 1,,,
CN1,Canonical_None,spentogy,59,851,"New words, canonical pronunciation",1,0,614,53,session 1,none,nasal,
CN1,Canonical_None,herpivore,79,,Nonwords,4,1,615,54,session 1,,,
CN1,Canonical_None,palashe,82,,Nonwords,1,0,738,55,session 1,,,
CN1,Canonical_None,feshtival,74,,Nonwords,1,0,711,56,session 1,,,
CN1,Canonical_None,herbivore,15,,Familiar words,4,0,706,57,session 1,,,
CN1,Canonical_None,glass,12,,Familiar words,1,1,630,58,session 1,,,
CN1,Canonical_None,ruttow,36,578,"New words, canonical pronunciation",1,0,532,59,session 1,canonical,flap,1
CN1,Canonical_None,snake,26,,Familiar words,1,1,619,60,session 1,,,
CN1,Canonical_None,shnake,90,,Nonwords,4,1,598,61,session 1,,,
CN1,Canonical_None,bashketball,68,,Nonwords,4,1,609,62,session 1,,,
CN1,Canonical_None,parrel,67,,Nonwords,4,1,505,63,session 1,,,
CN1,Canonical_None,glash,76,,Nonwords,4,1,623,64,session 1,,,
CN1,Canonical_None,cluttee,34,463,"New words, canonical pronunciation",1,0,465,65,session 1,none,flap,
CN1,Canonical_None,snail,25,,Familiar words,1,1,744,66,session 1,,,
CN1,Canonical_None,vettetus,51,900,"New words, canonical pronunciation",1,0,974,67,session 1,none,flap,
CN1,Canonical_None,ruppish,86,,Nonwords,4,1,655,68,session 1,,,
CN1,Canonical_None,trettemus,50,749,"New words, canonical pronunciation",1,0,743,69,session 1,canonical,flap,0
CN1,Canonical_None,trecoddus,117,860,"New words, trained pronunciation",1,1,699,70,session 1,canonical,flap,
CN1,Canonical_None,cynnergus,121,1023,"New words, trained pronunciation",1,1,770,71,session 1,none,nasal,
CN1,Canonical_None,shirt,24,,Familiar words,1,1,602,72,session 1,,,
CN1,Canonical_None,cabinet,6,,Familiar words,1,1,563,73,session 1,,,
CN1,Canonical_None,bredenno,124,696,"New words, trained pronunciation",1,1,640,74,session 1,canonical,nasal,
CN1,Canonical_None,sirt,88,,Nonwords,4,1,781,75,session 1,,,
CN1,Canonical_None,spoom,91,,Nonwords,1,0,655,76,session 1,,,
CN1,Canonical_None,spearoddus,118,1034,"New words, trained pronunciation",1,1,825,77,session 1,none,flap,
CN1,Canonical_None,spennogy,123,794,"New words, trained pronunciation",1,1,786,78,session 1,none,nasal,
CN1,Canonical_None,fluddow,101,570,"New words, trained pronunciation",1,1,549,79,session 1,none,flap,
CN1,Canonical_None,treddemus,114,737,"New words, trained pronunciation",1,1,520,80,session 1,canonical,flap,
CN1,Canonical_None,palace,18,,Familiar words,1,1,495,81,session 1,,,
CN1,Canonical_None,piddery,113,610,"New words, trained pronunciation",1,1,599,82,session 1,canonical,flap,
CN1,Canonical_None,wimdow,95,,Nonwords,1,0,691,83,session 1,,,
CN1,Canonical_None,vegetaple,94,,Nonwords,4,1,868,84,session 1,,,
CN1,Canonical_None,summit,28,,Familiar words,1,1,638,85,session 1,,,
CN1,Canonical_None,credenner,125,651,"New words, trained pronunciation",1,1,660,86,session 1,none,nasal,
CN1,Canonical_None,spoon,27,,Familiar words,1,1,751,87,session 1,,,
CN1,Canonical_None,trenner,104,506,"New words, trained pronunciation",1,1,477,88,session 1,canonical,nasal,
CN1,Canonical_None,teenager,29,,Familiar words,1,1,540,89,session 1,,,
CN1,Canonical_None,bredento,60,752,"New words, canonical pronunciation",1,0,643,90,session 1,canonical,nasal,0
CN1,Canonical_None,bencil,83,,Nonwords,4,1,637,91,session 1,,,
CN1,Canonical_None,dansher,73,,Nonwords,4,1,693,92,session 1,,,
CN1,Canonical_None,pribeddy,116,620,"New words, trained pronunciation",4,0,691,93,session 1,none,flap,
CN1,Canonical_None,lucrunny,127,701,"New words, trained pronunciation",1,1,726,94,session 1,none,nasal,
CN1,Canonical_None,veddetus,115,896,"New words, trained pronunciation",1,1,752,95,session 1,none,flap,
CN1,Canonical_None,slyttenee,48,902,"New words, canonical pronunciation",1,0,894,96,session 1,none,flap,
CN1,Canonical_None,slyddenee,112,863,"New words, trained pronunciation",1,1,1094,97,session 1,none,flap,
CN1,Canonical_None,vouddy,102,613,"New words, trained pronunciation",1,1,870,98,session 1,none,flap,
CN1,Canonical_None,balloom,65,,Nonwords,1,0,556,99,session 1,,,
CN1,Canonical_None,lucrunty,63,756,"New words, canonical pronunciation",4,1,1014,100,session 1,none,nasal,
CN1,Canonical_None,cyntergus,57,1099,"New words, canonical pronunciation",4,1,927,101,session 1,none,nasal,
CN1,Canonical_None,ham,14,,Familiar words,4,0,744,102,session 1,,,
CN1,Canonical_None,byddo,96,644,"New words, trained pronunciation",1,1,661,103,session 1,canonical,flap,
CN1,Canonical_None,pittery,49,599,"New words, canonical pronunciation",1,0,519,104,session 1,canonical,flap,1
CN1,Canonical_None,priest,20,,Familiar words,1,1,774,105,session 1,,,
CN1,Canonical_None,voutty,38,574,"New words, canonical pronunciation",4,1,851,106,session 1,none,flap,
CN1,Canonical_None,blittus,35,687,"New words, canonical pronunciation",1,0,588,107,session 1,none,flap,
CN1,Canonical_None,selter,87,,Nonwords,1,0,752,108,session 1,,,
CN1,Canonical_None,bank,2,,Familiar words,1,1,649,109,session 1,,,
CN1,Canonical_None,trounty,45,606,"New words, canonical pronunciation",1,0,637,110,session 1,none,nasal,
CN1,Canonical_None,glunter,41,552,"New words, canonical pronunciation",1,0,459,111,session 1,none,nasal,
CN1,Canonical_None,mechanic,16,,Familiar words,1,1,651,112,session 1,,,
CN1,Canonical_None,bytto,32,644,"New words, canonical pronunciation",1,0,565,113,session 1,canonical,flap,1
CN1,Canonical_None,cabimet,70,,Nonwords,1,0,541,114,session 1,,,
CN1,Canonical_None,ruddow,100,528,"New words, trained pronunciation",1,1,545,115,session 1,canonical,flap,
CN1,Canonical_None,trotty,33,513,"New words, canonical pronunciation",1,0,471,116,session 1,canonical,flap,1
CN1,Canonical_None,bliddus,99,654,"New words, trained pronunciation",1,1,498,117,session 1,none,flap,
CN1,Canonical_None,sunnit,92,,Nonwords,1,0,567,118,session 1,,,
CN1,Canonical_None,trecottus,53,885,"New words, canonical pronunciation",1,0,494,119,session 1,canonical,flap,0
CN1,Canonical_None,senno,106,557,"New words, trained pronunciation",1,1,483,120,session 1,canonical,nasal,
CN1,Canonical_None,shelter,23,,Familiar words,1,1,621,121,session 1,,,
CN1,Canonical_None,festival,10,,Familiar words,1,1,548,122,session 1,,,
CN1,Canonical_None,trounny,109,568,"New words, trained pronunciation",1,1,677,123,session 1,none,nasal,
CN1,Canonical_None,abron,64,,Nonwords,4,1,540,124,session 1,,,
CN1,Canonical_None,gleanty,47,588,"New words, canonical pronunciation",1,0,636,125,session 1,canonical,nasal,0
CN1,Canonical_None,suspinnus,126,1062,"New words, trained pronunciation",4,0,1033,126,session 1,canonical,nasal,
CN1,Canonical_None,restaurant,21,,Familiar words,1,1,731,127,session 1,,,
CN1,Canonical_None,prain,69,,Nonwords,4,1,2207,0,session 2,,,
CN1,Canonical_None,sento,42,637,"New words, canonical pronunciation",1,0,892,1,session 2,canonical,nasal,1
CN1,Canonical_None,basketball,4,,Familiar words,4,0,1184,2,session 2,,,
CN1,Canonical_None,bunnow,110,568,"New words, trained pronunciation",1,1,739,3,session 2,none,nasal,
CN1,Canonical_None,mushroom,17,,Familiar words,1,1,684,4,session 2,,,
CN1,Canonical_None,cluddee,98,478,"New words, trained pronunciation",1,1,574,5,session 2,none,flap,
CN1,Canonical_None,pank,66,,Nonwords,4,1,547,6,session 2,,,
CN1,Canonical_None,smail,89,,Nonwords,4,1,815,7,session 2,,,
CN1,Canonical_None,cassier,71,,Nonwords,4,1,681,8,session 2,,,
CN1,Canonical_None,slettow,39,630,"New words, canonical pronunciation",4,1,808,9,session 2,canonical,flap,1
CN1,Canonical_None,sounterby,56,848,"New words, canonical pronunciation",4,1,1271,10,session 2,canonical,nasal,1
CN1,Canonical_None,grape,13,,Familiar words,1,1,1527,11,session 2,,,
CN1,Canonical_None,cashier,7,,Familiar words,1,1,739,12,session 2,,,
CN1,Canonical_None,crame,72,,Nonwords,4,1,752,13,session 2,,,
CN1,Canonical_None,teemager,93,,Nonwords,4,1,1034,14,session 2,,,
CN1,Canonical_None,dancer,9,,Familiar words,1,1,600,15,session 2,,,
CN1,Canonical_None,barrel,3,,Familiar words,1,1,457,16,session 2,,,
CN1,Canonical_None,smounnus,108,968,"New words, trained pronunciation",1,1,810,17,session 2,canonical,nasal,
CN1,Canonical_None,troddy,97,588,"New words, trained pronunciation",1,1,538,18,session 2,canonical,flap,
CN1,Canonical_None,glunner,105,546,"New words, trained pronunciation",1,1,559,19,session 2,none,nasal,
CN1,Canonical_None,buntow,46,630,"New words, canonical pronunciation",4,1,774,20,session 2,none,nasal,
CN1,Canonical_None,sceaneddy,119,937,"New words, trained pronunciation",1,1,923,21,session 2,canonical,flap,
CN1,Canonical_None,spearottus,54,1058,"New words, canonical pronunciation",1,0,1131,22,session 2,none,flap,
CN1,Canonical_None,prounter,43,519,"New words, canonical pronunciation",1,0,762,23,session 2,none,nasal,
CN1,Canonical_None,prounner,107,450,"New words, trained pronunciation",1,1,484,24,session 2,none,nasal,
CN1,Canonical_None,han,78,,Nonwords,4,1,944,25,session 2,,,
CN1,Canonical_None,sleddow,103,620,"New words, trained pronunciation",1,1,856,26,session 2,canonical,flap,
CN1,Canonical_None,nushroom,81,,Nonwords,4,1,691,27,session 2,,,
CN1,Canonical_None,grabe,77,,Nonwords,4,1,708,28,session 2,,,
CN1,Canonical_None,briest,84,,Nonwords,4,1,813,29,session 2,,,
CN1,Canonical_None,pencil,19,,Familiar words,1,1,579,30,session 2,,,
CN1,Canonical_None,nechanic,80,,Nonwords,4,1,688,31,session 2,,,
CN1,Canonical_None,fluttow,37,632,"New words, canonical pronunciation",4,1,778,32,session 2,none,flap,
CN1,Canonical_None,balloon,1,,Familiar words,1,1,584,33,session 2,,,
CN1,Canonical_None,pribetty,52,670,"New words, canonical pronunciation",1,0,686,34,session 2,none,flap,
CN1,Canonical_None,vintimal,58,680,"New words, canonical pronunciation",-1,0,-1,35,session 2,canonical,nasal,0
CN1,Canonical_None,reshtaurant,85,,Nonwords,4,1,895,36,session 2,,,
CN1,Canonical_None,credenter,61,710,"New words, canonical pronunciation",4,1,958,37,session 2,none,nasal,
CN1,Canonical_None,suspintus,62,1117,"New words, canonical pronunciation",4,1,1034,38,session 2,canonical,nasal,1
CN1,Canonical_None,fish,11,,Familiar words,1,1,738,39,session 2,,,
CN1,Canonical_None,smountus,44,959,"New words, canonical pronunciation",4,1,1038,40,session 2,canonical,nasal,0
CN1,Canonical_None,gleanny,111,521,"New words, trained pronunciation",4,0,897,41,session 2,canonical,nasal,
CN1,Canonical_None,sounnerby,120,842,"New words, trained pronunciation",1,1,886,42,session 2,canonical,nasal,
CN1,Canonical_None,crane,8,,Familiar words,1,1,702,43,session 2,,,
CN1,Canonical_None,rubbish,22,,Familiar words,1,1,787,44,session 2,,,
CN1,Canonical_None,fiss,75,,Nonwords,4,1,729,45,session 2,,,
CN1,Canonical_None,vinnimal,122,697,"New words, trained pronunciation",1,1,1271,46,session 2,canonical,nasal,
CN1,Canonical_None,brain,5,,Familiar words,1,1,611,47,session 2,,,
CN1,Canonical_None,sceanetty,55,883,"New words, canonical pronunciation",1,0,981,48,session 2,canonical,flap,1
CN1,Canonical_None,trenter,40,550,"New words, canonical pronunciation",1,0,657,49,session 2,canonical,nasal,1
CN1,Canonical_None,apron,0,,Familiar words,1,1,547,50,session 2,,,
CN1,Canonical_None,vegetable,30,,Familiar words,1,1,688,51,session 2,,,
CN1,Canonical_None,window,31,,Familiar words,1,1,551,52,session 2,,,
CN1,Canonical_None,spentogy,59,851,"New words, canonical pronunciation",4,1,1058,53,session 2,none,nasal,
CN1,Canonical_None,herpivore,79,,Nonwords,1,0,852,54,session 2,,,
CN1,Canonical_None,palashe,82,,Nonwords,-1,0,-1,55,session 2,,,
CN1,Canonical_None,feshtival,74,,Nonwords,4,1,881,56,session 2,,,
CN1,Canonical_None,herbivore,15,,Familiar words,1,1,618,57,session 2,,,
CN1,Canonical_None,glass,12,,Familiar words,4,0,775,58,session 2,,,
CN1,Canonical_None,ruttow,36,578,"New words, canonical pronunciation",1,0,630,59,session 2,canonical,flap,1
CN1,Canonical_None,snake,26,,Familiar words,1,1,867,60,session 2,,,
CN1,Canonical_None,shnake,90,,Nonwords,4,1,645,61,session 2,,,
CN1,Canonical_None,bashketball,68,,Nonwords,-1,0,-1,62,session 2,,,
CN1,Canonical_None,parrel,67,,Nonwords,-1,0,-1,63,session 2,,,
CN1,Canonical_None,glash,76,,Nonwords,-1,0,-1,64,session 2,,,
CN1,Canonical_None,cluttee,34,463,"New words, canonical pronunciation",-1,0,-1,65,session 2,none,flap,
CN1,Canonical_None,snail,25,,Familiar words,1,1,844,66,session 2,,,
CN1,Canonical_None,vettetus,51,900,"New words, canonical pronunciation",1,0,805,67,session 2,none,flap,
CN1,Canonical_None,ruppish,86,,Nonwords,4,1,783,68,session 2,,,
CN1,Canonical_None,trettemus,50,749,"New words, canonical pronunciation",1,0,734,69,session 2,canonical,flap,0
CN1,Canonical_None,trecoddus,117,860,"New words, trained pronunciation",1,1,798,70,session 2,canonical,flap,
CN1,Canonical_None,cynnergus,121,1023,"New words, trained pronunciation",1,1,864,71,session 2,none,nasal,
CN1,Canonical_None,shirt,24,,Familiar words,1,1,720,72,session 2,,,
CN1,Canonical_None,cabinet,6,,Familiar words,1,1,735,73,session 2,,,
CN1,Canonical_None,bredenno,124,696,"New words, trained pronunciation",1,1,749,74,session 2,canonical,nasal,
CN1,Canonical_None,sirt,88,,Nonwords,4,1,737,75,session 2,,,
CN1,Canonical_None,spoom,91,,Nonwords,-1,0,-1,76,session 2,,,
CN1,Canonical_None,spearoddus,118,1034,"New words, trained pronunciation",1,1,1160,77,session 2,none,flap,
CN1,Canonical_None,spennogy,123,794,"New words, trained pronunciation",1,1,900,78,session 2,none,nasal,
CN1,Canonical_None,fluddow,101,570,"New words, trained pronunciation",1,1,684,79,session 2,none,flap,
CN1,Canonical_None,treddemus,114,737,"New words, trained pronunciation",1,1,719,80,session 2,canonical,flap,
CN1,Canonical_None,palace,18,,Familiar words,1,1,579,81,session 2,,,
CN1,Canonical_None,piddery,113,610,"New words, trained pronunciation",1,1,542,82,session 2,canonical,flap,
CN1,Canonical_None,wimdow,95,,Nonwords,1,0,669,83,session 2,,,
CN1,Canonical_None,vegetaple,94,,Nonwords,-1,0,-1,84,session 2,,,
CN1,Canonical_None,summit,28,,Familiar words,1,1,774,85,session 2,,,
CN1,Canonical_None,credenner,125,651,"New words, trained pronunciation",1,1,714,86,session 2,none,nasal,
CN1,Canonical_None,spoon,27,,Familiar words,1,1,856,87,session 2,,,
CN1,Canonical_None,trenner,104,506,"New words, trained pronunciation",1,1,688,88,session 2,canonical,nasal,
CN1,Canonical_None,teenager,29,,Familiar words,1,1,674,89,session 2,,,
CN1,Canonical_None,bredento,60,752,"New words, canonical pronunciation",1,0,882,90,session 2,canonical,nasal,0
CN1,Canonical_None,bencil,83,,Nonwords,-1,0,-1,91,session 2,,,
CN1,Canonical_None,dansher,73,,Nonwords,-1,0,-1,92,session 2,,,
CN1,Canonical_None,pribeddy,116,620,"New words, trained pronunciation",1,1,746,93,session 2,none,flap,
CN1,Canonical_None,lucrunny,127,701,"New words, trained pronunciation",1,1,673,94,session 2,none,nasal,
CN1,Canonical_None,veddetus,115,896,"New words, trained pronunciation",1,1,854,95,session 2,none,flap,
CN1,Canonical_None,slyttenee,48,902,"New words, canonical pronunciation",1,0,962,96,session 2,none,flap,
CN1,Canonical_None,slyddenee,112,863,"New words, trained pronunciation",1,1,979,97,session 2,none,flap,
CN1,Canonical_None,vouddy,102,613,"New words, trained pronunciation",1,1,730,98,session 2,none,flap,
CN1,Canonical_None,balloom,65,,Nonwords,-1,0,-1,99,session 2,,,
CN1,Canonical_None,lucrunty,63,756,"New words, canonical pronunciation",4,1,1033,100,session 2,none,nasal,
CN1,Canonical_None,cyntergus,57,1099,"New words, canonical pronunciation",-1,0,-1,101,session 2,none,nasal,
CN1,Canonical_None,ham,14,,Familiar words,1,1,692,102,session 2,,,
CN1,Canonical_None,byddo,96,644,"New words, trained pronunciation",1,1,698,103,session 2,canonical,flap,
CN1,Canonical_None,pittery,49,599,"New words, canonical pronunciation",1,0,658,104,session 2,canonical,flap,1
CN1,Canonical_None,priest,20,,Familiar words,1,1,788,105,session 2,,,
CN1,Canonical_None,voutty,38,574,"New words, canonical pronunciation",-1,0,-1,106,session 2,none,flap,
CN1,Canonical_None,blittus,35,687,"New words, canonical pronunciation",1,0,633,107,session 2,none,flap,
CN1,Canonical_None,selter,87,,Nonwords,-1,0,-1,108,session 2,,,
CN1,Canonical_None,bank,2,,Familiar words,1,1,588,109,session 2,,,
CN1,Canonical_None,trounty,45,606,"New words, canonical pronunciation",1,0,824,110,session 2,none,nasal,
CN1,Canonical_None,glunter,41,552,"New words, canonical pronunciation",1,0,1100,111,session 2,none,nasal,
CN1,Canonical_None,mechanic,16,,Familiar words,1,1,773,112,session 2,,,
CN1,Canonical_None,bytto,32,644,"New words, canonical pronunciation",1,0,597,113,session 2,canonical,flap,1
CN1,Canonical_None,cabimet,70,,Nonwords,-1,0,-1,114,session 2,,,
CN1,Canonical_None,ruddow,100,528,"New words, trained pronunciation",1,1,623,115,session 2,canonical,flap,
CN1,Canonical_None,trotty,33,513,"New words, canonical pronunciation",1,0,598,116,session 2,canonical,flap,1
CN1,Canonical_None,bliddus,99,654,"New words, trained pronunciation",1,1,488,117,session 2,none,flap,
CN1,Canonical_None,sunnit,92,,Nonwords,1,0,582,118,session 2,,,
CN1,Canonical_None,trecottus,53,885,"New words, canonical pronunciation",1,0,735,119,session 2,canonical,flap,0
CN1,Canonical_None,senno,106,557,"New words, trained pronunciation",-1,0,-1,120,session 2,canonical,nasal,
CN1,Canonical_None,shelter,23,,Familiar words,1,1,658,121,session 2,,,
CN1,Canonical_None,festival,10,,Familiar words,1,1,619,122,session 2,,,
CN1,Canonical_None,trounny,109,568,"New words, trained pronunciation",1,1,720,123,session 2,none,nasal,
CN1,Canonical_None,abron,64,,Nonwords,4,1,675,124,session 2,,,
CN1,Canonical_None,gleanty,47,588,"New words, canonical pronunciation",1,0,687,125,session 2,canonical,nasal,0
CN1,Canonical_None,suspinnus,126,1062,"New words, trained pronunciation",1,1,964,126,session 2,canonical,nasal,
CN1,Canonical_None,restaurant,21,,Familiar words,1,1,760,127,session 2,,,
CN1,Canonical_None,prain,69,,Nonwords,4,1,2038,0,session 3,,,
CN1,Canonical_None,sento,42,637,"New words, canonical pronunciation",4,1,944,1,session 3,canonical,nasal,1
CN1,Canonical_None,basketball,4,,Familiar words,1,1,848,2,session 3,,,
CN1,Canonical_None,bunnow,110,568,"New words, trained pronunciation",1,1,587,3,session 3,none,nasal,
CN1,Canonical_None,mushroom,17,,Familiar words,-1,0,-1,4,session 3,,,
CN1,Canonical_None,cluddee,98,478,"New words, trained pronunciation",1,1,564,5,session 3,none,flap,
CN1,Canonical_None,pank,66,,Nonwords,4,1,530,6,session 3,,,
CN1,Canonical_None,smail,89,,Nonwords,4,1,894,7,session 3,,,
CN1,Canonical_None,cassier,71,,Nonwords,1,0,681,8,session 3,,,
CN1,Canonical_None,slettow,39,630,"New words, canonical pronunciation",1,0,902,9,session 3,canonical,flap,1
CN1,Canonical_None,sounterby,56,848,"New words, canonical pronunciation",4,1,1058,10,session 3,canonical,nasal,1
CN1,Canonical_None,grape,13,,Familiar words,1,1,621,11,session 3,,,
CN1,Canonical_None,cashier,7,,Familiar words,1,1,741,12,session 3,,,
CN1,Canonical_None,crame,72,,Nonwords,4,1,847,13,session 3,,,
CN1,Canonical_None,teemager,93,,Nonwords,4,1,688,14,session 3,,,
CN1,Canonical_None,dancer,9,,Familiar words,1,1,578,15,session 3,,,
CN1,Canonical_None,barrel,3,,Familiar words,1,1,507,16,session 3,,,
CN1,Canonical_None,smounnus,108,968,"New words, trained pronunciation",1,1,830,17,session 3,canonical,nasal,
CN1,Canonical_None,troddy,97,588,"New words, trained pronunciation",1,1,518,18,session 3,canonical,flap,
CN1,Canonical_None,glunner,105,546,"New words, trained pronunciation",1,1,577,19,session 3,none,nasal,
CN1,Canonical_None,buntow,46,630,"New words, canonical pronunciation",4,1,646,20,session 3,none,nasal,
CN1,Canonical_None,sceaneddy,119,937,"New words, trained pronunciation",1,1,950,21,session 3,canonical,flap,
CN1,Canonical_None,spearottus,54,1058,"New words, canonical pronunciation",1,0,866,22,session 3,none,flap,
CN1,Canonical_None,prounter,43,519,"New words, canonical pronunciation",4,1,1037,23,session 3,none,nasal,
CN1,Canonical_None,prounner,107,450,"New words, trained pronunciation",1,1,460,24,session 3,none,nasal,
CN1,Canonical_None,han,78,,Nonwords,4,1,643,25,session 3,,,
CN1,Canonical_None,sleddow,103,620,"New words, trained pronunciation",1,1,959,26,session 3,canonical,flap,
CN1,Canonical_None,nushroom,81,,Nonwords,4,1,664,27,session 3,,,
CN1,Canonical_None,grabe,77,,Nonwords,4,1,628,28,session 3,,,
CN1,Canonical_None,briest,84,,Nonwords,4,1,568,29,session 3,,,
CN1,Canonical_None,pencil,19,,Familiar words,1,1,545,30,session 3,,,
CN1,Canonical_None,nechanic,80,,Nonwords,4,1,761,31,session 3,,,
CN1,Canonical_None,fluttow,37,632,"New words, canonical pronunciation",4,1,690,32,session 3,none,flap,
CN1,Canonical_None,balloon,1,,Familiar words,1,1,559,33,session 3,,,
CN1,Canonical_None,pribetty,52,670,"New words, canonical pronunciation",1,0,638,34,session 3,none,flap,
CN1,Canonical_None,vintimal,58,680,"New words, canonical pronunciation",4,1,631,35,session 3,canonical,nasal,0
CN1,Canonical_None,reshtaurant,85,,Nonwords,4,1,982,36,session 3,,,
CN1,Canonical_None,credenter,61,710,"New words, canonical pronunciation",4,1,732,37,session 3,none,nasal,
CN1,Canonical_None,suspintus,62,1117,"New words, canonical pronunciation",1,0,1308,38,session 3,canonical,nasal,1
CN1,Canonical_None,fish,11,,Familiar words,1,1,918,39,session 3,,,
CN1,Canonical_None,smountus,44,959,"New words, canonical pronunciation",4,1,950,40,session 3,canonical,nasal,0
CN1,Canonical_None,gleanny,111,521,"New words, trained pronunciation",1,1,557,41,session 3,canonical,nasal,
CN1,Canonical_None,sounnerby,120,842,"New words, trained pronunciation",1,1,806,42,session 3,canonical,nasal,
CN1,Canonical_None,crane,8,,Familiar words,1,1,544,43,session 3,,,
CN1,Canonical_None,rubbish,22,,Familiar words,1,1,545,44,session 3,,,
CN1,Canonical_None,fiss,75,,Nonwords,1,0,524,45,session 3,,,
CN1,Canonical_None,vinnimal,122,697,"New words, trained pronunciation",1,1,665,46,session 3,canonical,nasal,
CN1,Canonical_None,brain,5,,Familiar words,1,1,488,47,session 3,,,
CN1,Canonical_None,sceanetty,55,883,"New words, canonical pronunciation",1,0,966,48,session 3,canonical,flap,1
CN1,Canonical_None,trenter,40,550,"New words, canonical pronunciation",1,0,671,49,session 3,canonical,nasal,1
CN1,Canonical_None,apron,0,,Familiar words,1,1,559,50,session 3,,,
CN1,Canonical_None,vegetable,30,,Familiar words,1,1,683,51,session 3,,,
CN1,Canonical_None,window,31,,Familiar words,1,1,461,52,session 3,,,
CN1,Canonical_None,spentogy,59,851,"New words, canonical pronunciation",1,0,962,53,session 3,none,nasal,
CN1,Canonical_None,herpivore,79,,Nonwords,4,1,612,54,session 3,,,
CN1,Canonical_None,palashe,82,,Nonwords,4,1,742,55,session 3,,,
CN1,Canonical_None,feshtival,74,,Nonwords,4,1,643,56,session 3,,,
CN1,Canonical_None,herbivore,15,,Familiar words,1,1,505,57,session 3,,,
CN1,Canonical_None,glass,12,,Familiar words,1,1,1070,58,session 3,,,
CN1,Canonical_None,ruttow,36,578,"New words, canonical pronunciation",1,0,551,59,session 3,canonical,flap,1
CN1,Canonical_None,snake,26,,Familiar words,1,1,597,60,session 3,,,
CN1,Canonical_None,shnake,90,,Nonwords,4,1,531,61,session 3,,,
CN1,Canonical_None,bashketball,68,,Nonwords,4,1,535,62,session 3,,,
CN1,Canonical_None,parrel,67,,Nonwords,4,1,452,63,session 3,,,
CN1,Canonical_None,glash,76,,Nonwords,4,1,475,64,session 3,,,
CN1,Canonical_None,cluttee,34,463,"New words, canonical pronunciation",1,0,693,65,session 3,none,flap,
CN1,Canonical_None,snail,25,,Familiar words,1,1,589,66,session 3,,,
CN1,Canonical_None,vettetus,51,900,"New words, canonical pronunciation",1,0,871,67,session 3,none,flap,
CN1,Canonical_None,ruppish,86,,Nonwords,4,1,629,68,session 3,,,
CN1,Canonical_None,trettemus,50,749,"New words, canonical pronunciation",1,0,609,69,session 3,canonical,flap,0
CN1,Canonical_None,trecoddus,117,860,"New words, trained pronunciation",1,1,648,70,session 3,canonical,flap,
CN1,Canonical_None,cynnergus,121,1023,"New words, trained pronunciation",1,1,839,71,session 3,none,nasal,
CN1,Canonical_None,shirt,24,,Familiar words,1,1,513,72,session 3,,,
CN1,Canonical_None,cabinet,6,,Familiar words,1,1,529,73,session 3,,,
CN1,Canonical_None,bredenno,124,696,"New words, trained pronunciation",1,1,715,74,session 3,canonical,nasal,
CN1,Canonical_None,sirt,88,,Nonwords,4,1,571,75,session 3,,,
CN1,Canonical_None,spoom,91,,Nonwords,4,1,981,76,session 3,,,
CN1,Canonical_None,spearoddus,118,1034,"New words, trained pronunciation",1,1,1023,77,session 3,none,flap,
CN1,Canonical_None,spennogy,123,794,"New words, trained pronunciation",1,1,764,78,session 3,none,nasal,
CN1,Canonical_None,fluddow,101,570,"New words, trained pronunciation",1,1,601,79,session 3,none,flap,
CN1,Canonical_None,treddemus,114,737,"New words, trained pronunciation",1,1,586,80,session 3,canonical,flap,
CN1,Canonical_None,palace,18,,Familiar words,1,1,539,81,session 3,,,
CN1,Canonical_None,piddery,113,610,"New words, trained pronunciation",1,1,498,82,session 3,canonical,flap,
CN1,Canonical_None,wimdow,95,,Nonwords,4,1,866,83,session 3,,,
CN1,Canonical_None,vegetaple,94,,Nonwords,4,1,838,84,session 3,,,
CN1,Canonical_None,summit,28,,Familiar words,1,1,640,85,session 3,,,
CN1,Canonical_None,credenner,125,651,"New words, trained pronunciation",1,1,685,86,session 3,none,nasal,
CN1,Canonical_None,spoon,27,,Familiar words,1,1,726,87,session 3,,,
CN1,Canonical_None,trenner,104,506,"New words, trained pronunciation",1,1,520,88,session 3,canonical,nasal,
CN1,Canonical_None,teenager,29,,Familiar words,1,1,567,89,session 3,,,
CN1,Canonical_None,bredento,60,752,"New words, canonical pronunciation",1,0,560,90,session 3,canonical,nasal,0
CN1,Canonical_None,bencil,83,,Nonwords,1,0,450,91,session 3,,,
CN1,Canonical_None,dansher,73,,Nonwords,4,1,475,92,session 3,,,
CN1,Canonical_None,pribeddy,116,620,"New words, trained pronunciation",4,0,591,93,session 3,none,flap,
CN1,Canonical_None,lucrunny,127,701,"New words, trained pronunciation",-1,0,-1,94,session 3,none,nasal,
CN1,Canonical_None,veddetus,115,896,"New words, trained pronunciation",1,1,813,95,session 3,none,flap,
CN1,Canonical_None,slyttenee,48,902,"New words, canonical pronunciation",-1,0,-1,96,session 3,none,flap,
CN1,Canonical_None,slyddenee,112,863,"New words, trained pronunciation",1,1,1032,97,session 3,none,flap,
CN1,Canonical_None,vouddy,102,613,"New words, trained pronunciation",1,1,691,98,session 3,none,flap,
CN1,Canonical_None,balloom,65,,Nonwords,4,1,810,99,session 3,,,
CN1,Canonical_None,lucrunty,63,756,"New words, canonical pronunciation",4,1,800,100,session 3,none,nasal,
CN1,Canonical_None,cyntergus,57,1099,"New words, canonical pronunciation",4,1,1257,101,session 3,none,nasal,
CN1,Canonical_None,ham,14,,Familiar words,1,1,546,102,session 3,,,
CN1,Canonical_None,byddo,96,644,"New words, trained pronunciation",1,1,671,103,session 3,canonical,flap,
CN1,Canonical_None,pittery,49,599,"New words, canonical pronunciation",1,0,598,104,session 3,canonical,flap,1
CN1,Canonical_None,priest,20,,Familiar words,1,1,617,105,session 3,,,
CN1,Canonical_None,voutty,38,574,"New words, canonical pronunciation",4,1,672,106,session 3,none,flap,
CN1,Canonical_None,blittus,35,687,"New words, canonical pronunciation",1,0,635,107,session 3,none,flap,
CN1,Canonical_None,selter,87,,Nonwords,4,1,659,108,session 3,,,
CN1,Canonical_None,bank,2,,Familiar words,1,1,548,109,session 3,,,
CN1,Canonical_None,trounty,45,606,"New words, canonical pronunciation",1,0,782,110,session 3,none,nasal,
CN1,Canonical_None,glunter,41,552,"New words, canonical pronunciation",4,1,940,111,session 3,none,nasal,
CN1,Canonical_None,mechanic,16,,Familiar words,1,1,694,112,session 3,,,
CN1,Canonical_None,bytto,32,644,"New words, canonical pronunciation",4,1,839,113,session 3,canonical,flap,1
CN1,Canonical_None,cabimet,70,,Nonwords,4,1,631,114,session 3,,,
CN1,Canonical_None,ruddow,100,528,"New words, trained pronunciation",4,0,692,115,session 3,canonical,flap,
CN1,Canonical_None,trotty,33,513,"New words, canonical pronunciation",4,1,664,116,session 3,canonical,flap,1
CN1,Canonical_None,bliddus,99,654,"New words, trained pronunciation",1,1,497,117,session 3,none,flap,
CN1,Canonical_None,sunnit,92,,Nonwords,4,1,626,118,session 3,,,
CN1,Canonical_None,trecottus,53,885,"New words, canonical pronunciation",4,1,860,119,session 3,canonical,flap,0
CN1,Canonical_None,senno,106,557,"New words, trained pronunciation",1,1,759,120,session 3,canonical,nasal,
CN1,Canonical_None,shelter,23,,Familiar words,1,1,651,121,session 3,,,
CN1,Canonical_None,festival,10,,Familiar words,1,1,592,122,session 3,,,
CN1,Canonical_None,trounny,109,568,"New words, trained pronunciation",1,1,756,123,session 3,none,nasal,
CN1,Canonical_None,abron,64,,Nonwords,4,1,529,124,session 3,,,
CN1,Canonical_None,gleanty,47,588,"New words, canonical pronunciation",4,1,526,125,session 3,canonical,nasal,0
CN1,Canonical_None,suspinnus,126,1062,"New words, trained pronunciation",1,1,1073,126,session 3,canonical,nasal,
CN1,Canonical_None,restaurant,21,,Familiar words,1,1,630,127,session 3,,,
CN11,Canonical_None,prain,69,,Nonwords,1,0,3573,0,session 1,,,
CN11,Canonical_None,sento,42,637,"New words, canonical pronunciation",1,0,1250,1,session 1,canonical,nasal,1
CN11,Canonical_None,basketball,4,,Familiar words,1,1,1232,2,session 1,,,
CN11,Canonical_None,bunnow,110,568,"New words, trained pronunciation",1,1,1152,3,session 1,none,nasal,
CN11,Canonical_None,mushroom,17,,Familiar words,1,1,951,4,session 1,,,
CN11,Canonical_None,cluddee,98,478,"New words, trained pronunciation",1,1,1075,5,session 1,none,flap,
CN11,Canonical_None,pank,66,,Nonwords,1,0,1341,6,session 1,,,
CN11,Canonical_None,smail,89,,Nonwords,1,0,1096,7,session 1,,,
CN11,Canonical_None,cassier,71,,Nonwords,1,0,1226,8,session 1,,,
CN11,Canonical_None,slettow,39,630,"New words, canonical pronunciation",4,1,1825,9,session 1,canonical,flap,1
CN11,Canonical_None,sounterby,56,848,"New words, canonical pronunciation",1,0,1460,10,session 1,canonical,nasal,1
CN11,Canonical_None,grape,13,,Familiar words,1,1,884,11,session 1,,,
CN11,Canonical_None,cashier,7,,Familiar words,1,1,907,12,session 1,,,
CN11,Canonical_None,crame,72,,Nonwords,4,1,1329,13,session 1,,,
CN11,Canonical_None,teemager,93,,Nonwords,4,1,1089,14,session 1,,,
CN11,Canonical_None,dancer,9,,Familiar words,1,1,711,15,session 1,,,
CN11,Canonical_None,barrel,3,,Familiar words,1,1,638,16,session 1,,,
CN11,Canonical_None,smounnus,108,968,"New words, trained pronunciation",1,1,895,17,session 1,canonical,nasal,
CN11,Canonical_None,troddy,97,588,"New words, trained pronunciation",1,1,906,18,session 1,canonical,flap,
CN11,Canonical_None,glunner,105,546,"New words, trained pronunciation",1,1,869,19,session 1,none,nasal,
CN11,Canonical_None,buntow,46,630,"New words, canonical pronunciation",4,1,1351,20,session 1,none,nasal,
CN11,Canonical_None,sceaneddy,119,937,"New words, trained pronunciation",1,1,1060,21,session 1,canonical,flap,
CN11,Canonical_None,spearottus,54,1058,"New words, canonical pronunciation",4,1,2248,22,session 1,none,flap,
CN11,Canonical_None,prounter,43,519,"New words, canonical pronunciation",1,0,1104,23,session 1,none,nasal,
CN11,Canonical_None,prounner,107,450,"New words, trained pronunciation",1,1,842,24,session 1,none,nasal,
CN11,Canonical_None,han,78,,Nonwords,4,1,1072,25,session 1,,,
CN11,Canonical_None,sleddow,103,620,"New words, trained pronunciation",1,1,954,26,session 1,canonical,flap,
CN11,Canonical_None,nushroom,81,,Nonwords,1,0,991,27,session 1,,,
CN11,Canonical_None,grabe,77,,Nonwords,4,1,1243,28,session 1,,,
CN11,Canonical_None,briest,84,,Nonwords,1,0,1134,29,session 1,,,
CN11,Canonical_None,pencil,19,,Familiar words,1,1,897,30,session 1,,,
CN11,Canonical_None,nechanic,80,,Nonwords,4,1,992,31,session 1,,,
CN11,Canonical_None,fluttow,37,632,"New words, canonical pronunciation",4,1,1390,32,session 1,none,flap,
CN11,Canonical_None,balloon,1,,Familiar words,1,1,771,33,session 1,,,
CN11,Canonical_None,pribetty,52,670,"New words, canonical pronunciation",1,0,1430,34,session 1,none,flap,
CN11,Canonical_None,vintimal,58,680,"New words, canonical pronunciation",1,0,971,35,session 1,canonical,nasal,0
CN11,Canonical_None,reshtaurant,85,,Nonwords,4,1,1533,36,session 1,,,
CN11,Canonical_None,credenter,61,710,"New words, canonical pronunciation",1,0,1515,37,session 1,none,nasal,
CN11,Canonical_None,suspintus,62,1117,"New words, canonical pronunciation",1,0,1347,38,session 1,canonical,nasal,1
CN11,Canonical_None,fish,11,,Familiar words,1,1,758,39,session 1,,,
CN11,Canonical_None,smountus,44,959,"New words, canonical pronunciation",1,0,958,40,session 1,canonical,nasal,1
CN11,Canonical_None,gleanny,111,521,"New words, trained pronunciation",1,1,2006,41,session 1,canonical,nasal,
CN11,Canonical_None,sounnerby,120,842,"New words, trained pronunciation",1,1,975,42,session 1,canonical,nasal,
CN11,Canonical_None,crane,8,,Familiar words,1,1,929,43,session 1,,,
CN11,Canonical_None,rubbish,22,,Familiar words,1,1,969,44,session 1,,,
CN11,Canonical_None,fiss,75,,Nonwords,4,1,958,45,session 1,,,
CN11,Canonical_None,vinnimal,122,697,"New words, trained pronunciation",1,1,1292,46,session 1,canonical,nasal,
CN11,Canonical_None,brain,5,,Familiar words,1,1,813,47,session 1,,,
CN11,Canonical_None,sceanetty,55,883,"New words, canonical pronunciation",1,0,1072,48,session 1,canonical,flap,1
CN11,Canonical_None,trenter,40,550,"New words, canonical pronunciation",4,1,2345,49,session 1,canonical,nasal,1
CN11,Canonical_None,apron,0,,Familiar words,1,1,754,50,session 1,,,
CN11,Canonical_None,vegetable,30,,Familiar words,1,1,1929,51,session 1,,,
CN11,Canonical_None,window,31,,Familiar words,1,1,2510,52,session 1,,,
CN11,Canonical_None,spentogy,59,851,"New words, canonical pronunciation",4,1,1889,53,session 1,none,nasal,
CN11,Canonical_None,herpivore,79,,Nonwords,4,1,2082,54,session 1,,,
CN11,Canonical_None,palashe,82,,Nonwords,4,1,1121,55,session 1,,,
CN11,Canonical_None,feshtival,74,,Nonwords,4,1,962,56,session 1,,,
CN11,Canonical_None,herbivore,15,,Familiar words,1,1,991,57,session 1,,,
CN11,Canonical_None,glass,12,,Familiar words,1,1,4108,58,session 1,,,
CN11,Canonical_None,ruttow,36,578,"New words, canonical pronunciation",4,1,1968,59,session 1,canonical,flap,1
CN11,Canonical_None,snake,26,,Familiar words,1,1,890,60,session 1,,,
CN11,Canonical_None,shnake,90,,Nonwords,4,1,1037,61,session 1,,,
CN11,Canonical_None,bashketball,68,,Nonwords,4,1,1064,62,session 1,,,
CN11,Canonical_None,parrel,67,,Nonwords,4,1,1468,63,session 1,,,
CN11,Canonical_None,glash,76,,Nonwords,4,1,1092,64,session 1,,,
CN11,Canonical_None,cluttee,34,463,"New words, canonical pronunciation",4,1,1420,65,session 1,none,flap,
CN11,Canonical_None,snail,25,,Familiar words,1,1,885,66,session 1,,,
CN11,Canonical_None,vettetus,51,900,"New words, canonical pronunciation",1,0,2648,67,session 1,none,flap,
CN11,Canonical_None,ruppish,86,,Nonwords,4,1,1001,68,session 1,,,
CN11,Canonical_None,trettemus,50,749,"New words, canonical pronunciation",1,0,1835,69,session 1,canonical,flap,0
CN11,Canonical_None,trecoddus,117,860,"New words, trained pronunciation",1,1,898,70,session 1,canonical,flap,
CN11,Canonical_None,cynnergus,121,1023,"New words, trained pronunciation",1,1,1058,71,session 1,none,nasal,
CN11,Canonical_None,shirt,24,,Familiar words,1,1,950,72,session 1,,,
CN11,Canonical_None,cabinet,6,,Familiar words,1,1,984,73,session 1,,,
CN11,Canonical_None,bredenno,124,696,"New words, trained pronunciation",1,1,778,74,session 1,canonical,nasal,
CN11,Canonical_None,sirt,88,,Nonwords,4,1,1223,75,session 1,,,
CN11,Canonical_None,spoom,91,,Nonwords,4,1,1474,76,session 1,,,
CN11,Canonical_None,spearoddus,118,1034,"New words, trained pronunciation",1,1,965,77,session 1,none,flap,
CN11,Canonical_None,spennogy,123,794,"New words, trained pronunciation",1,1,1715,78,session 1,none,nasal,
CN11,Canonical_None,fluddow,101,570,"New words, trained pronunciation",1,1,833,79,session 1,none,flap,
CN11,Canonical_None,treddemus,114,737,"New words, trained pronunciation",1,1,804,80,session 1,canonical,flap,
CN11,Canonical_None,palace,18,,Familiar words,1,1,894,81,session 1,,,
CN11,Canonical_None,piddery,113,610,"New words, trained pronunciation",1,1,836,82,session 1,canonical,flap,
CN11,Canonical_None,wimdow,95,,Nonwords,4,1,1386,83,session 1,,,
CN11,Canonical_None,vegetaple,94,,Nonwords,4,1,1430,84,session 1,,,
CN11,Canonical_None,summit,28,,Familiar words,1,1,1542,85,session 1,,,
CN11,Canonical_None,credenner,125,651,"New words, trained pronunciation",1,1,1155,86,session 1,none,nasal,
CN11,Canonical_None,spoon,27,,Familiar words,1,1,1253,87,session 1,,,
CN11,Canonical_None,trenner,104,506,"New words, trained pronunciation",1,1,829,88,session 1,canonical,nasal,
CN11,Canonical_None,teenager,29,,Familiar words,1,1,873,89,session 1,,,
CN11,Canonical_None,bredento,60,752,"New words, canonical pronunciation",4,1,1439,90,session 1,canonical,nasal,0
CN11,Canonical_None,bencil,83,,Nonwords,4,1,1084,91,session 1,,,
CN11,Canonical_None,dansher,73,,Nonwords,4,1,990,92,session 1,,,
CN11,Canonical_None,pribeddy,116,620,"New words, trained pronunciation",1,1,959,93,session 1,none,flap,
CN11,Canonical_None,lucrunny,127,701,"New words, trained pronunciation",1,1,915,94,session 1,none,nasal,
CN11,Canonical_None,veddetus,115,896,"New words, trained pronunciation",1,1,1025,95,session 1,none,flap,
CN11,Canonical_None,slyttenee,48,902,"New words, canonical pronunciation",4,1,1465,96,session 1,none,flap,
CN11,Canonical_None,slyddenee,112,863,"New words, trained pronunciation",1,1,1061,97,session 1,none,flap,
CN11,Canonical_None,vouddy,102,613,"New words, trained pronunciation",1,1,967,98,session 1,none,flap,
CN11,Canonical_None,balloom,65,,Nonwords,1,0,1299,99,session 1,,,
CN11,Canonical_None,lucrunty,63,756,"New words, canonical pronunciation",4,1,1419,100,session 1,none,nasal,
CN11,Canonical_None,cyntergus,57,1099,"New words, canonical pronunciation",4,1,1607,101,session 1,none,nasal,
CN11,Canonical_None,ham,14,,Familiar words,1,1,655,102,session 1,,,
CN11,Canonical_None,byddo,96,644,"New words, trained pronunciation",1,1,771,103,session 1,canonical,flap,
CN11,Canonical_None,pittery,49,599,"New words, canonical pronunciation",1,0,777,104,session 1,canonical,flap,1
CN11,Canonical_None,priest,20,,Familiar words,1,1,778,105,session 1,,,
CN11,Canonical_None,voutty,38,574,"New words, canonical pronunciation",1,0,792,106,session 1,none,flap,
CN11,Canonical_None,blittus,35,687,"New words, canonical pronunciation",4,1,1857,107,session 1,none,flap,
CN11,Canonical_None,selter,87,,Nonwords,4,1,2369,108,session 1,,,
CN11,Canonical_None,bank,2,,Familiar words,1,1,630,109,session 1,,,
CN11,Canonical_None,trounty,45,606,"New words, canonical pronunciation",1,0,1336,110,session 1,none,nasal,
CN11,Canonical_None,glunter,41,552,"New words, canonical pronunciation",4,1,1082,111,session 1,none,nasal,
CN11,Canonical_None,mechanic,16,,Familiar words,1,1,918,112,session 1,,,
CN11,Canonical_None,bytto,32,644,"New words, canonical pronunciation",1,0,699,113,session 1,canonical,flap,1
CN11,Canonical_None,cabimet,70,,Nonwords,4,1,1276,114,session 1,,,
CN11,Canonical_None,ruddow,100,528,"New words, trained pronunciation",1,1,772,115,session 1,canonical,flap,
CN11,Canonical_None,trotty,33,513,"New words, canonical pronunciation",1,0,628,116,session 1,canonical,flap,1
CN11,Canonical_None,bliddus,99,654,"New words, trained pronunciation",1,1,909,117,session 1,none,flap,
CN11,Canonical_None,sunnit,92,,Nonwords,4,1,1278,118,session 1,,,
CN11,Canonical_None,trecottus,53,885,"New words, canonical pronunciation",4,1,1561,119,session 1,canonical,flap,0
CN11,Canonical_None,senno,106,557,"New words, trained pronunciation",1,1,816,120,session 1,canonical,nasal,
CN11,Canonical_None,shelter,23,,Familiar words,1,1,982,121,session 1,,,
CN11,Canonical_None,festival,10,,Familiar words,1,1,813,122,session 1,,,
CN11,Canonical_None,trounny,109,568,"New words, trained pronunciation",1,1,988,123,session 1,none,nasal,
CN11,Canonical_None,abron,64,,Nonwords,4,1,1201,124,session 1,,,
CN11,Canonical_None,gleanty,47,588,"New words, canonical pronunciation",1,0,772,125,session 1,canonical,nasal,1
CN11,Canonical_None,suspinnus,126,1062,"New words, trained pronunciation",1,1,1110,126,session 1,canonical,nasal,
CN11,Canonical_None,restaurant,21,,Familiar words,1,1,820,127,session 1,,,
CN11,Canonical_None,prain,69,,Nonwords,4,1,2791,0,session 2,,,
CN11,Canonical_None,sento,42,637,"New words, canonical pronunciation",1,0,1529,1,session 2,canonical,nasal,1
CN11,Canonical_None,basketball,4,,Familiar words,1,1,1104,2,session 2,,,
CN11,Canonical_None,bunnow,110,568,"New words, trained pronunciation",1,1,729,3,session 2,none,nasal,
CN11,Canonical_None,mushroom,17,,Familiar words,1,1,774,4,session 2,,,
CN11,Canonical_None,cluddee,98,478,"New words, trained pronunciation",1,1,816,5,session 2,none,flap,
CN11,Canonical_None,pank,66,,Nonwords,4,1,927,6,session 2,,,
CN11,Canonical_None,smail,89,,Nonwords,4,1,1261,7,session 2,,,
CN11,Canonical_None,cassier,71,,Nonwords,4,1,814,8,session 2,,,
CN11,Canonical_None,slettow,39,630,"New words, canonical pronunciation",4,1,1493,9,session 2,canonical,flap,1
CN11,Canonical_None,sounterby,56,848,"New words, canonical pronunciation",4,1,1538,10,session 2,canonical,nasal,1
CN11,Canonical_None,grape,13,,Familiar words,1,1,2745,11,session 2,,,
CN11,Canonical_None,cashier,7,,Familiar words,1,1,1080,12,session 2,,,
CN11,Canonical_None,crame,72,,Nonwords,4,1,1133,13,session 2,,,
CN11,Canonical_None,teemager,93,,Nonwords,4,1,800,14,session 2,,,
CN11,Canonical_None,dancer,9,,Familiar words,1,1,703,15,session 2,,,
CN11,Canonical_None,barrel,3,,Familiar words,1,1,645,16,session 2,,,
CN11,Canonical_None,smounnus,108,968,"New words, trained pronunciation",1,1,1008,17,session 2,canonical,nasal,
CN11,Canonical_None,troddy,97,588,"New words, trained pronunciation",1,1,774,18,session 2,canonical,flap,
CN11,Canonical_None,glunner,105,546,"New words, trained pronunciation",1,1,840,19,session 2,none,nasal,
CN11,Canonical_None,buntow,46,630,"New words, canonical pronunciation",1,0,731,20,session 2,none,nasal,
CN11,Canonical_None,sceaneddy,119,937,"New words, trained pronunciation",1,1,2010,21,session 2,canonical,flap,
CN11,Canonical_None,spearottus,54,1058,"New words, canonical pronunciation",1,0,1497,22,session 2,none,flap,
CN11,Canonical_None,prounter,43,519,"New words, canonical pronunciation",1,0,1504,23,session 2,none,nasal,
CN11,Canonical_None,prounner,107,450,"New words, trained pronunciation",1,1,515,24,session 2,none,nasal,
CN11,Canonical_None,han,78,,Nonwords,4,1,1234,25,session 2,,,
CN11,Canonical_None,sleddow,103,620,"New words, trained pronunciation",1,1,825,26,session 2,canonical,flap,
CN11,Canonical_None,nushroom,81,,Nonwords,4,1,846,27,session 2,,,
CN11,Canonical_None,grabe,77,,Nonwords,4,1,900,28,session 2,,,
CN11,Canonical_None,briest,84,,Nonwords,4,1,740,29,session 2,,,
CN11,Canonical_None,pencil,19,,Familiar words,1,1,747,30,session 2,,,
CN11,Canonical_None,nechanic,80,,Nonwords,4,1,875,31,session 2,,,
CN11,Canonical_None,fluttow,37,632,"New words, canonical pronunciation",1,0,962,32,session 2,none,flap,
CN11,Canonical_None,balloon,1,,Familiar words,1,1,741,33,session 2,,,
CN11,Canonical_None,pribetty,52,670,"New words, canonical pronunciation",1,0,989,34,session 2,none,flap,
CN11,Canonical_None,vintimal,58,680,"New words, canonical pronunciation",1,0,954,35,session 2,canonical,nasal,0
CN11,Canonical_None,reshtaurant,85,,Nonwords,1,0,1936,36,session 2,,,
CN11,Canonical_None,credenter,61,710,"New words, canonical pronunciation",1,0,1768,37,session 2,none,nasal,
CN11,Canonical_None,suspintus,62,1117,"New words, canonical pronunciation",1,0,1303,38,session 2,canonical,nasal,1
CN11,Canonical_None,fish,11,,Familiar words,1,1,628,39,session 2,,,
CN11,Canonical_None,smountus,44,959,"New words, canonical pronunciation",1,0,779,40,session 2,canonical,nasal,1
CN11,Canonical_None,gleanny,111,521,"New words, trained pronunciation",1,1,979,41,session 2,canonical,nasal,
CN11,Canonical_None,sounnerby,120,842,"New words, trained pronunciation",4,0,1055,42,session 2,canonical,nasal,
CN11,Canonical_None,crane,8,,Familiar words,1,1,894,43,session 2,,,
CN11,Canonical_None,rubbish,22,,Familiar words,1,1,895,44,session 2,,,
CN11,Canonical_None,fiss,75,,Nonwords,4,1,1011,45,session 2,,,
CN11,Canonical_None,vinnimal,122,697,"New words, trained pronunciation",1,1,914,46,session 2,canonical,nasal,
CN11,Canonical_None,brain,5,,Familiar words,1,1,792,47,session 2,,,
CN11,Canonical_None,sceanetty,55,883,"New words, canonical pronunciation",1,0,989,48,session 2,canonical,flap,1
CN11,Canonical_None,trenter,40,550,"New words, canonical pronunciation",1,0,1704,49,session 2,canonical,nasal,1
CN11,Canonical_None,apron,0,,Familiar words,1,1,820,50,session 2,,,
CN11,Canonical_None,vegetable,30,,Familiar words,1,1,898,51,session 2,,,
CN11,Canonical_None,window,31,,Familiar words,1,1,694,52,session 2,,,
CN11,Canonical_None,spentogy,59,851,"New words, canonical pronunciation",4,1,1817,53,session 2,none,nasal,
CN11,Canonical_None,herpivore,79,,Nonwords,4,1,1209,54,session 2,,,
CN11,Canonical_None,palashe,82,,Nonwords,4,1,868,55,session 2,,,
CN11,Canonical_None,feshtival,74,,Nonwords,4,1,722,56,session 2,,,
CN11,Canonical_None,herbivore,15,,Familiar words,1,1,862,57,session 2,,,
CN11,Canonical_None,glass,12,,Familiar words,1,1,854,58,session 2,,,
CN11,Canonical_None,ruttow,36,578,"New words, canonical pronunciation",4,1,2397,59,session 2,canonical,flap,1
CN11,Canonical_None,snake,26,,Familiar words,1,1,1037,60,session 2,,,
CN11,Canonical_None,shnake,90,,Nonwords,4,1,1112,61,session 2,,,
CN11,Canonical_None,bashketball,68,,Nonwords,4,1,978,62,session 2,,,
CN11,Canonical_None,parrel,67,,Nonwords,4,1,1872,63,session 2,,,
CN11,Canonical_None,glash,76,,Nonwords,4,1,1062,64,session 2,,,
CN11,Canonical_None,cluttee,34,463,"New words, canonical pronunciation",1,0,1498,65,session 2,none,flap,
CN11,Canonical_None,snail,25,,Familiar words,1,1,1112,66,session 2,,,
CN11,Canonical_None,vettetus,51,900,"New words, canonical pronunciation",4,1,2060,67,session 2,none,flap,
CN11,Canonical_None,ruppish,86,,Nonwords,4,1,1046,68,session 2,,,
CN11,Canonical_None,trettemus,50,749,"New words, canonical pronunciation",1,0,1454,69,session 2,canonical,flap,0
CN11,Canonical_None,trecoddus,117,860,"New words, trained pronunciation",1,1,1051,70,session 2,canonical,flap,
CN11,Canonical_None,cynnergus,121,1023,"New words, trained pronunciation",1,1,947,71,session 2,none,nasal,
CN11,Canonical_None,shirt,24,,Familiar words,1,1,856,72,session 2,,,
CN11,Canonical_None,cabinet,6,,Familiar words,1,1,939,73,session 2,,,
CN11,Canonical_None,bredenno,124,696,"New words, trained pronunciation",1,1,2275,74,session 2,canonical,nasal,
CN11,Canonical_None,sirt,88,,Nonwords,4,1,964,75,session 2,,,
CN11,Canonical_None,spoom,91,,Nonwords,1,0,911,76,session 2,,,
CN11,Canonical_None,spearoddus,118,1034,"New words, trained pronunciation",1,1,1143,77,session 2,none,flap,
CN11,Canonical_None,spennogy,123,794,"New words, trained pronunciation",1,1,1413,78,session 2,none,nasal,
CN11,Canonical_None,fluddow,101,570,"New words, trained pronunciation",1,1,1026,79,session 2,none,flap,
CN11,Canonical_None,treddemus,114,737,"New words, trained pronunciation",1,1,1082,80,session 2,canonical,flap,
CN11,Canonical_None,palace,18,,Familiar words,1,1,960,81,session 2,,,
CN11,Canonical_None,piddery,113,610,"New words, trained pronunciation",1,1,968,82,session 2,canonical,flap,
CN11,Canonical_None,wimdow,95,,Nonwords,1,0,980,83,session 2,,,
CN11,Canonical_None,vegetaple,94,,Nonwords,4,1,976,84,session 2,,,
CN11,Canonical_None,summit,28,,Familiar words,1,1,1042,85,session 2,,,
CN11,Canonical_None,credenner,125,651,"New words, trained pronunciation",1,1,1007,86,session 2,none,nasal,
CN11,Canonical_None,spoon,27,,Familiar words,1,1,1088,87,session 2,,,
CN11,Canonical_None,trenner,104,506,"New words, trained pronunciation",1,1,918,88,session 2,canonical,nasal,
CN11,Canonical_None,teenager,29,,Familiar words,1,1,1022,89,session 2,,,
CN11,Canonical_None,bredento,60,752,"New words, canonical pronunciation",4,1,1398,90,session 2,canonical,nasal,0
CN11,Canonical_None,bencil,83,,Nonwords,4,1,856,91,session 2,,,
CN11,Canonical_None,dansher,73,,Nonwords,4,1,786,92,session 2,,,
CN11,Canonical_None,pribeddy,116,620,"New words, trained pronunciation",1,1,1067,93,session 2,none,flap,
CN11,Canonical_None,lucrunny,127,701,"New words, trained pronunciation",1,1,899,94,session 2,none,nasal,
CN11,Canonical_None,veddetus,115,896,"New words, trained pronunciation",1,1,1094,95,session 2,none,flap,
CN11,Canonical_None,slyttenee,48,902,"New words, canonical pronunciation",4,1,2303,96,session 2,none,flap,
CN11,Canonical_None,slyddenee,112,863,"New words, trained pronunciation",1,1,1556,97,session 2,none,flap,
CN11,Canonical_None,vouddy,102,613,"New words, trained pronunciation",1,1,762,98,session 2,none,flap,
CN11,Canonical_None,balloom,65,,Nonwords,1,0,537,99,session 2,,,
CN11,Canonical_None,lucrunty,63,756,"New words, canonical pronunciation",4,1,1042,100,session 2,none,nasal,
CN11,Canonical_None,cyntergus,57,1099,"New words, canonical pronunciation",4,1,1936,101,session 2,none,nasal,
CN11,Canonical_None,ham,14,,Familiar words,1,1,909,102,session 2,,,
CN11,Canonical_None,byddo,96,644,"New words, trained pronunciation",1,1,986,103,session 2,canonical,flap,
CN11,Canonical_None,pittery,49,599,"New words, canonical pronunciation",1,0,1262,104,session 2,canonical,flap,1
CN11,Canonical_None,priest,20,,Familiar words,1,1,991,105,session 2,,,
CN11,Canonical_None,voutty,38,574,"New words, canonical pronunciation",1,0,845,106,session 2,none,flap,
CN11,Canonical_None,blittus,35,687,"New words, canonical pronunciation",4,1,1666,107,session 2,none,flap,
CN11,Canonical_None,selter,87,,Nonwords,4,1,1125,108,session 2,,,
CN11,Canonical_None,bank,2,,Familiar words,1,1,740,109,session 2,,,
CN11,Canonical_None,trounty,45,606,"New words, canonical pronunciation",1,0,773,110,session 2,none,nasal,
CN11,Canonical_None,glunter,41,552,"New words, canonical pronunciation",4,1,1070,111,session 2,none,nasal,
CN11,Canonical_None,mechanic,16,,Familiar words,1,1,946,112,session 2,,,
CN11,Canonical_None,bytto,32,644,"New words, canonical pronunciation",4,1,2227,113,session 2,canonical,flap,1
CN11,Canonical_None,cabimet,70,,Nonwords,4,1,833,114,session 2,,,
CN11,Canonical_None,ruddow,100,528,"New words, trained pronunciation",1,1,733,115,session 2,canonical,flap,
CN11,Canonical_None,trotty,33,513,"New words, canonical pronunciation",1,0,748,116,session 2,canonical,flap,1
CN11,Canonical_None,bliddus,99,654,"New words, trained pronunciation",1,1,757,117,session 2,none,flap,
CN11,Canonical_None,sunnit,92,,Nonwords,4,1,944,118,session 2,,,
CN11,Canonical_None,trecottus,53,885,"New words, canonical pronunciation",4,1,963,119,session 2,canonical,flap,0
CN11,Canonical_None,senno,106,557,"New words, trained pronunciation",4,0,1228,120,session 2,canonical,nasal,
CN11,Canonical_None,shelter,23,,Familiar words,1,1,938,121,session 2,,,
CN11,Canonical_None,festival,10,,Familiar words,1,1,870,122,session 2,,,
CN11,Canonical_None,trounny,109,568,"New words, trained pronunciation",1,1,815,123,session 2,none,nasal,
CN11,Canonical_None,abron,64,,Nonwords,4,1,1194,124,session 2,,,
CN11,Canonical_None,gleanty,47,588,"New words, canonical pronunciation",1,0,1412,125,session 2,canonical,nasal,1
CN11,Canonical_None,suspinnus,126,1062,"New words, trained pronunciation",1,1,1194,126,session 2,canonical,nasal,
CN11,Canonical_None,restaurant,21,,Familiar words,1,1,884,127,session 2,,,
CN11,Canonical_None,prain,69,,Nonwords,1,0,1462,0,session 3,,,
CN11,Canonical_None,sento,42,637,"New words, canonical pronunciation",1,0,919,1,session 3,canonical,nasal,1
CN11,Canonical_None,basketball,4,,Familiar words,1,1,995,2,session 3,,,
CN11,Canonical_None,bunnow,110,568,"New words, trained pronunciation",1,1,996,3,session 3,none,nasal,
CN11,Canonical_None,mushroom,17,,Familiar words,1,1,857,4,session 3,,,
CN11,Canonical_None,cluddee,98,478,"New words, trained pronunciation",1,1,879,5,session 3,none,flap,
CN11,Canonical_None,pank,66,,Nonwords,4,1,683,6,session 3,,,
CN11,Canonical_None,smail,89,,Nonwords,4,1,744,7,session 3,,,
CN11,Canonical_None,cassier,71,,Nonwords,4,1,528,8,session 3,,,
CN11,Canonical_None,slettow,39,630,"New words, canonical pronunciation",4,1,793,9,session 3,canonical,flap,1
CN11,Canonical_None,sounterby,56,848,"New words, canonical pronunciation",1,0,839,10,session 3,canonical,nasal,1
CN11,Canonical_None,grape,13,,Familiar words,1,1,717,11,session 3,,,
CN11,Canonical_None,cashier,7,,Familiar words,1,1,698,12,session 3,,,
CN11,Canonical_None,crame,72,,Nonwords,1,0,862,13,session 3,,,
CN11,Canonical_None,teemager,93,,Nonwords,4,1,696,14,session 3,,,
CN11,Canonical_None,dancer,9,,Familiar words,1,1,640,15,session 3,,,
CN11,Canonical_None,barrel,3,,Familiar words,1,1,562,16,session 3,,,
CN11,Canonical_None,smounnus,108,968,"New words, trained pronunciation",1,1,944,17,session 3,canonical,nasal,
CN11,Canonical_None,troddy,97,588,"New words, trained pronunciation",1,1,1186,18,session 3,canonical,flap,
CN11,Canonical_None,glunner,105,546,"New words, trained pronunciation",1,1,755,19,session 3,none,nasal,
CN11,Canonical_None,buntow,46,630,"New words, canonical pronunciation",4,1,801,20,session 3,none,nasal,
CN11,Canonical_None,sceaneddy,119,937,"New words, trained pronunciation",1,1,1220,21,session 3,canonical,flap,
CN11,Canonical_None,spearottus,54,1058,"New words, canonical pronunciation",4,1,1103,22,session 3,none,flap,
CN11,Canonical_None,prounter,43,519,"New words, canonical pronunciation",4,1,1661,23,session 3,none,nasal,
CN11,Canonical_None,prounner,107,450,"New words, trained pronunciation",1,1,529,24,session 3,none,nasal,
CN11,Canonical_None,han,78,,Nonwords,4,1,695,25,session 3,,,
CN11,Canonical_None,sleddow,103,620,"New words, trained pronunciation",1,1,730,26,session 3,canonical,flap,
CN11,Canonical_None,nushroom,81,,Nonwords,4,1,649,27,session 3,,,
CN11,Canonical_None,grabe,77,,Nonwords,4,1,655,28,session 3,,,
CN11,Canonical_None,briest,84,,Nonwords,1,0,618,29,session 3,,,
CN11,Canonical_None,pencil,19,,Familiar words,1,1,844,30,session 3,,,
CN11,Canonical_None,nechanic,80,,Nonwords,4,1,812,31,session 3,,,
CN11,Canonical_None,fluttow,37,632,"New words, canonical pronunciation",4,1,1108,32,session 3,none,flap,
CN11,Canonical_None,balloon,1,,Familiar words,1,1,843,33,session 3,,,
CN11,Canonical_None,pribetty,52,670,"New words, canonical pronunciation",1,0,745,34,session 3,none,flap,
CN11,Canonical_None,vintimal,58,680,"New words, canonical pronunciation",1,0,827,35,session 3,canonical,nasal,0
CN11,Canonical_None,reshtaurant,85,,Nonwords,4,1,771,36,session 3,,,
CN11,Canonical_None,credenter,61,710,"New words, canonical pronunciation",1,0,704,37,session 3,none,nasal,
CN11,Canonical_None,suspintus,62,1117,"New words, canonical pronunciation",4,1,919,38,session 3,canonical,nasal,1
CN11,Canonical_None,fish,11,,Familiar words,1,1,1022,39,session 3,,,
CN11,Canonical_None,smountus,44,959,"New words, canonical pronunciation",1,0,950,40,session 3,canonical,nasal,1
CN11,Canonical_None,gleanny,111,521,"New words, trained pronunciation",1,1,738,41,session 3,canonical,nasal,
CN11,Canonical_None,sounnerby,120,842,"New words, trained pronunciation",1,1,933,42,session 3,canonical,nasal,
CN11,Canonical_None,crane,8,,Familiar words,1,1,766,43,session 3,,,
CN11,Canonical_None,rubbish,22,,Familiar words,1,1,651,44,session 3,,,
CN11,Canonical_None,fiss,75,,Nonwords,4,1,585,45,session 3,,,
CN11,Canonical_None,vinnimal,122,697,"New words, trained pronunciation",4,0,1225,46,session 3,canonical,nasal,
CN11,Canonical_None,brain,5,,Familiar words,1,1,853,47,session 3,,,
CN11,Canonical_None,sceanetty,55,883,"New words, canonical pronunciation",4,1,1083,48,session 3,canonical,flap,1
CN11,Canonical_None,trenter,40,550,"New words, canonical pronunciation",4,1,1159,49,session 3,canonical,nasal,1
CN11,Canonical_None,apron,0,,Familiar words,1,1,790,50,session 3,,,
CN11,Canonical_None,vegetable,30,,Familiar words,1,1,984,51,session 3,,,
CN11,Canonical_None,window,31,,Familiar words,1,1,798,52,session 3,,,
CN11,Canonical_None,spentogy,59,851,"New words, canonical pronunciation",4,1,1000,53,session 3,none,nasal,
CN11,Canonical_None,herpivore,79,,Nonwords,4,1,794,54,session 3,,,
CN11,Canonical_None,palashe,82,,Nonwords,4,1,848,55,session 3,,,
CN11,Canonical_None,feshtival,74,,Nonwords,4,1,841,56,session 3,,,
CN11,Canonical_None,herbivore,15,,Familiar words,1,1,935,57,session 3,,,
CN11,Canonical_None,glass,12,,Familiar words,1,1,872,58,session 3,,,
CN11,Canonical_None,ruttow,36,578,"New words, canonical pronunciation",4,1,738,59,session 3,canonical,flap,1
CN11,Canonical_None,snake,26,,Familiar words,1,1,1021,60,session 3,,,
CN11,Canonical_None,shnake,90,,Nonwords,4,1,369,61,session 3,,,
CN11,Canonical_None,bashketball,68,,Nonwords,4,1,618,62,session 3,,,
CN11,Canonical_None,parrel,67,,Nonwords,1,0,526,63,session 3,,,
CN11,Canonical_None,glash,76,,Nonwords,4,1,575,64,session 3,,,
CN11,Canonical_None,cluttee,34,463,"New words, canonical pronunciation",4,1,505,65,session 3,none,flap,
CN11,Canonical_None,snail,25,,Familiar words,1,1,879,66,session 3,,,
CN11,Canonical_None,vettetus,51,900,"New words, canonical pronunciation",4,1,1203,67,session 3,none,flap,
CN11,Canonical_None,ruppish,86,,Nonwords,4,1,1509,68,session 3,,,
CN11,Canonical_None,trettemus,50,749,"New words, canonical pronunciation",1,0,852,69,session 3,canonical,flap,0
CN11,Canonical_None,trecoddus,117,860,"New words, trained pronunciation",1,1,819,70,session 3,canonical,flap,
CN11,Canonical_None,cynnergus,121,1023,"New words, trained pronunciation",1,1,898,71,session 3,none,nasal,
CN11,Canonical_None,shirt,24,,Familiar words,1,1,637,72,session 3,,,
CN11,Canonical_None,cabinet,6,,Familiar words,1,1,761,73,session 3,,,
CN11,Canonical_None,bredenno,124,696,"New words, trained pronunciation",1,1,703,74,session 3,canonical,nasal,
CN11,Canonical_None,sirt,88,,Nonwords,4,1,869,75,session 3,,,
CN11,Canonical_None,spoom,91,,Nonwords,4,1,897,76,session 3,,,
CN11,Canonical_None,spearoddus,118,1034,"New words, trained pronunciation",1,1,1044,77,session 3,none,flap,
CN11,Canonical_None,spennogy,123,794,"New words, trained pronunciation",1,1,1068,78,session 3,none,nasal,
CN11,Canonical_None,fluddow,101,570,"New words, trained pronunciation",1,1,773,79,session 3,none,flap,
CN11,Canonical_None,treddemus,114,737,"New words, trained pronunciation",1,1,864,80,session 3,canonical,flap,
CN11,Canonical_None,palace,18,,Familiar words,1,1,816,81,session 3,,,
CN11,Canonical_None,piddery,113,610,"New words, trained pronunciation",1,1,688,82,session 3,canonical,flap,
CN11,Canonical_None,wimdow,95,,Nonwords,4,1,916,83,session 3,,,
CN11,Canonical_None,vegetaple,94,,Nonwords,4,1,932,84,session 3,,,
CN11,Canonical_None,summit,28,,Familiar words,1,1,953,85,session 3,,,
CN11,Canonical_None,credenner,125,651,"New words, trained pronunciation",1,1,1275,86,session 3,none,nasal,
CN11,Canonical_None,spoon,27,,Familiar words,1,1,1101,87,session 3,,,
CN11,Canonical_None,trenner,104,506,"New words, trained pronunciation",1,1,647,88,session 3,canonical,nasal,
CN11,Canonical_None,teenager,29,,Familiar words,1,1,679,89,session 3,,,
CN11,Canonical_None,bredento,60,752,"New words, canonical pronunciation",1,0,1098,90,session 3,canonical,nasal,0
CN11,Canonical_None,bencil,83,,Nonwords,4,1,828,91,session 3,,,
CN11,Canonical_None,dansher,73,,Nonwords,4,1,1102,92,session 3,,,
CN11,Canonical_None,pribeddy,116,620,"New words, trained pronunciation",1,1,918,93,session 3,none,flap,
CN11,Canonical_None,lucrunny,127,701,"New words, trained pronunciation",1,1,1165,94,session 3,none,nasal,
CN11,Canonical_None,veddetus,115,896,"New words, trained pronunciation",1,1,1169,95,session 3,none,flap,
CN11,Canonical_None,slyttenee,48,902,"New words, canonical pronunciation",4,1,1082,96,session 3,none,flap,
CN11,Canonical_None,slyddenee,112,863,"New words, trained pronunciation",1,1,1019,97,session 3,none,flap,
CN11,Canonical_None,vouddy,102,613,"New words, trained pronunciation",1,1,824,98,session 3,none,flap,
CN11,Canonical_None,balloom,65,,Nonwords,1,0,603,99,session 3,,,
CN11,Canonical_None,lucrunty,63,756,"New words, canonical pronunciation",4,1,1201,100,session 3,none,nasal,
CN11,Canonical_None,cyntergus,57,1099,"New words, canonical pronunciation",4,1,1029,101,session 3,none,nasal,
CN11,Canonical_None,ham,14,,Familiar words,1,1,1420,102,session 3,,,
CN11,Canonical_None,byddo,96,644,"New words, trained pronunciation",1,1,1863,103,session 3,canonical,flap,
CN11,Canonical_None,pittery,49,599,"New words, canonical pronunciation",1,0,950,104,session 3,canonical,flap,1
CN11,Canonical_None,priest,20,,Familiar words,1,1,705,105,session 3,,,
CN11,Canonical_None,voutty,38,574,"New words, canonical pronunciation",1,0,450,106,session 3,none,flap,
CN11,Canonical_None,blittus,35,687,"New words, canonical pronunciation",4,1,1243,107,session 3,none,flap,
CN11,Canonical_None,selter,87,,Nonwords,4,1,658,108,session 3,,,
CN11,Canonical_None,bank,2,,Familiar words,1,1,502,109,session 3,,,
CN11,Canonical_None,trounty,45,606,"New words, canonical pronunciation",4,1,841,110,session 3,none,nasal,
CN11,Canonical_None,glunter,41,552,"New words, canonical pronunciation",4,1,676,111,session 3,none,nasal,
CN11,Canonical_None,mechanic,16,,Familiar words,1,1,760,112,session 3,,,
CN11,Canonical_None,bytto,32,644,"New words, canonical pronunciation",1,0,778,113,session 3,canonical,flap,1
CN11,Canonical_None,cabimet,70,,Nonwords,4,1,786,114,session 3,,,
CN11,Canonical_None,ruddow,100,528,"New words, trained pronunciation",1,1,629,115,session 3,canonical,flap,
CN11,Canonical_None,trotty,33,513,"New words, canonical pronunciation",4,1,971,116,session 3,canonical,flap,1
CN11,Canonical_None,bliddus,99,654,"New words, trained pronunciation",1,1,760,117,session 3,none,flap,
CN11,Canonical_None,sunnit,92,,Nonwords,4,1,936,118,session 3,,,
CN11,Canonical_None,trecottus,53,885,"New words, canonical pronunciation",4,1,849,119,session 3,canonical,flap,0
CN11,Canonical_None,senno,106,557,"New words, trained pronunciation",1,1,2647,120,session 3,canonical,nasal,
CN11,Canonical_None,shelter,23,,Familiar words,1,1,891,121,session 3,,,
CN11,Canonical_None,festival,10,,Familiar words,1,1,726,122,session 3,,,
CN11,Canonical_None,trounny,109,568,"New words, trained pronunciation",1,1,632,123,session 3,none,nasal,
CN11,Canonical_None,abron,64,,Nonwords,1,0,660,124,session 3,,,
CN11,Canonical_None,gleanty,47,588,"New words, canonical pronunciation",1,0,684,125,session 3,canonical,nasal,1
CN11,Canonical_None,suspinnus,126,1062,"New words, trained pronunciation",1,1,1037,126,session 3,canonical,nasal,
CN11,Canonical_None,restaurant,21,,Familiar words,1,1,881,127,session 3,,,
CN12,Canonical_None,prain,69,,Nonwords,4,1,3064,0,session 1,,,
CN12,Canonical_None,sento,42,637,"New words, canonical pronunciation",1,0,829,1,session 1,canonical,nasal,1
CN12,Canonical_None,basketball,4,,Familiar words,1,1,666,2,session 1,,,
CN12,Canonical_None,bunnow,110,568,"New words, trained pronunciation",1,1,680,3,session 1,none,nasal,
CN12,Canonical_None,mushroom,17,,Familiar words,1,1,624,4,session 1,,,
CN12,Canonical_None,cluddee,98,478,"New words, trained pronunciation",1,1,1480,5,session 1,none,flap,
CN12,Canonical_None,pank,66,,Nonwords,4,1,978,6,session 1,,,
CN12,Canonical_None,smail,89,,Nonwords,1,0,847,7,session 1,,,
CN12,Canonical_None,cassier,71,,Nonwords,4,1,1146,8,session 1,,,
CN12,Canonical_None,slettow,39,630,"New words, canonical pronunciation",1,0,1480,9,session 1,canonical,flap,0
CN12,Canonical_None,sounterby,56,848,"New words, canonical pronunciation",1,0,1065,10,session 1,canonical,nasal,0
CN12,Canonical_None,grape,13,,Familiar words,1,1,367,11,session 1,,,
CN12,Canonical_None,cashier,7,,Familiar words,1,1,396,12,session 1,,,
CN12,Canonical_None,crame,72,,Nonwords,1,0,484,13,session 1,,,
CN12,Canonical_None,teemager,93,,Nonwords,1,0,804,14,session 1,,,
CN12,Canonical_None,dancer,9,,Familiar words,1,1,815,15,session 1,,,
CN12,Canonical_None,barrel,3,,Familiar words,1,1,505,16,session 1,,,
CN12,Canonical_None,smounnus,108,968,"New words, trained pronunciation",1,1,860,17,session 1,canonical,nasal,
CN12,Canonical_None,troddy,97,588,"New words, trained pronunciation",1,1,604,18,session 1,canonical,flap,
CN12,Canonical_None,glunner,105,546,"New words, trained pronunciation",1,1,836,19,session 1,none,nasal,
CN12,Canonical_None,buntow,46,630,"New words, canonical pronunciation",1,0,662,20,session 1,none,nasal,
CN12,Canonical_None,sceaneddy,119,937,"New words, trained pronunciation",1,1,990,21,session 1,canonical,flap,
CN12,Canonical_None,spearottus,54,1058,"New words, canonical pronunciation",1,0,1471,22,session 1,none,flap,
CN12,Canonical_None,prounter,43,519,"New words, canonical pronunciation",1,0,637,23,session 1,none,nasal,
CN12,Canonical_None,prounner,107,450,"New words, trained pronunciation",1,1,1111,24,session 1,none,nasal,
CN12,Canonical_None,han,78,,Nonwords,4,1,1120,25,session 1,,,
CN12,Canonical_None,sleddow,103,620,"New words, trained pronunciation",1,1,1084,26,session 1,canonical,flap,
CN12,Canonical_None,nushroom,81,,Nonwords,4,1,686,27,session 1,,,
CN12,Canonical_None,grabe,77,,Nonwords,1,0,638,28,session 1,,,
CN12,Canonical_None,briest,84,,Nonwords,4,1,940,29,session 1,,,
CN12,Canonical_None,pencil,19,,Familiar words,1,1,548,30,session 1,,,
CN12,Canonical_None,nechanic,80,,Nonwords,4,1,1134,31,session 1,,,
CN12,Canonical_None,fluttow,37,632,"New words, canonical pronunciation",1,0,965,32,session 1,none,flap,
CN12,Canonical_None,balloon,1,,Familiar words,1,1,648,33,session 1,,,
CN12,Canonical_None,pribetty,52,670,"New words, canonical pronunciation",1,0,715,34,session 1,none,flap,
CN12,Canonical_None,vintimal,58,680,"New words, canonical pronunciation",1,0,715,35,session 1,canonical,nasal,1
CN12,Canonical_None,reshtaurant,85,,Nonwords,4,1,1183,36,session 1,,,
CN12,Canonical_None,credenter,61,710,"New words, canonical pronunciation",4,1,1405,37,session 1,none,nasal,
CN12,Canonical_None,suspintus,62,1117,"New words, canonical pronunciation",1,0,1274,38,session 1,canonical,nasal,1
CN12,Canonical_None,fish,11,,Familiar words,1,1,503,39,session 1,,,
CN12,Canonical_None,smountus,44,959,"New words, canonical pronunciation",1,0,1196,40,session 1,canonical,nasal,0
CN12,Canonical_None,gleanny,111,521,"New words, trained pronunciation",1,1,649,41,session 1,canonical,nasal,
CN12,Canonical_None,sounnerby,120,842,"New words, trained pronunciation",1,1,798,42,session 1,canonical,nasal,
CN12,Canonical_None,crane,8,,Familiar words,1,1,862,43,session 1,,,
CN12,Canonical_None,rubbish,22,,Familiar words,1,1,726,44,session 1,,,
CN12,Canonical_None,fiss,75,,Nonwords,4,1,664,45,session 1,,,
CN12,Canonical_None,vinnimal,122,697,"New words, trained pronunciation",1,1,902,46,session 1,canonical,nasal,
CN12,Canonical_None,brain,5,,Familiar words,1,1,713,47,session 1,,,
CN12,Canonical_None,sceanetty,55,883,"New words, canonical pronunciation",1,0,961,48,session 1,canonical,flap,1
CN12,Canonical_None,trenter,40,550,"New words, canonical pronunciation",4,1,1033,49,session 1,canonical,nasal,0
CN12,Canonical_None,apron,0,,Familiar words,1,1,794,50,session 1,,,
CN12,Canonical_None,vegetable,30,,Familiar words,1,1,908,51,session 1,,,
CN12,Canonical_None,window,31,,Familiar words,1,1,641,52,session 1,,,
CN12,Canonical_None,spentogy,59,851,"New words, canonical pronunciation",4,1,1081,53,session 1,none,nasal,
CN12,Canonical_None,herpivore,79,,Nonwords,4,1,640,54,session 1,,,
CN12,Canonical_None,palashe,82,,Nonwords,4,1,841,55,session 1,,,
CN12,Canonical_None,feshtival,74,,Nonwords,4,1,722,56,session 1,,,
CN12,Canonical_None,herbivore,15,,Familiar words,1,1,746,57,session 1,,,
CN12,Canonical_None,glass,12,,Familiar words,1,1,679,58,session 1,,,
CN12,Canonical_None,ruttow,36,578,"New words, canonical pronunciation",1,0,915,59,session 1,canonical,flap,0
CN12,Canonical_None,snake,26,,Familiar words,1,1,662,60,session 1,,,
CN12,Canonical_None,shnake,90,,Nonwords,4,1,585,61,session 1,,,
CN12,Canonical_None,bashketball,68,,Nonwords,4,1,552,62,session 1,,,
CN12,Canonical_None,parrel,67,,Nonwords,4,1,597,63,session 1,,,
CN12,Canonical_None,glash,76,,Nonwords,4,1,695,64,session 1,,,
CN12,Canonical_None,cluttee,34,463,"New words, canonical pronunciation",1,0,1253,65,session 1,none,flap,
CN12,Canonical_None,snail,25,,Familiar words,1,1,727,66,session 1,,,
CN12,Canonical_None,vettetus,51,900,"New words, canonical pronunciation",4,1,1093,67,session 1,none,flap,
CN12,Canonical_None,ruppish,86,,Nonwords,4,1,599,68,session 1,,,
CN12,Canonical_None,trettemus,50,749,"New words, canonical pronunciation",4,1,770,69,session 1,canonical,flap,0
CN12,Canonical_None,trecoddus,117,860,"New words, trained pronunciation",4,0,918,70,session 1,canonical,flap,
CN12,Canonical_None,cynnergus,121,1023,"New words, trained pronunciation",1,1,991,71,session 1,none,nasal,
CN12,Canonical_None,shirt,24,,Familiar words,1,1,706,72,session 1,,,
CN12,Canonical_None,cabinet,6,,Familiar words,1,1,654,73,session 1,,,
CN12,Canonical_None,bredenno,124,696,"New words, trained pronunciation",1,1,739,74,session 1,canonical,nasal,
CN12,Canonical_None,sirt,88,,Nonwords,4,1,760,75,session 1,,,
CN12,Canonical_None,spoom,91,,Nonwords,1,0,652,76,session 1,,,
CN12,Canonical_None,spearoddus,118,1034,"New words, trained pronunciation",1,1,1078,77,session 1,none,flap,
CN12,Canonical_None,spennogy,123,794,"New words, trained pronunciation",1,1,3157,78,session 1,none,nasal,
CN12,Canonical_None,fluddow,101,570,"New words, trained pronunciation",1,1,763,79,session 1,none,flap,
CN12,Canonical_None,treddemus,114,737,"New words, trained pronunciation",1,1,1633,80,session 1,canonical,flap,
CN12,Canonical_None,palace,18,,Familiar words,1,1,787,81,session 1,,,
CN12,Canonical_None,piddery,113,610,"New words, trained pronunciation",1,1,750,82,session 1,canonical,flap,
CN12,Canonical_None,wimdow,95,,Nonwords,4,1,999,83,session 1,,,
CN12,Canonical_None,vegetaple,94,,Nonwords,4,1,867,84,session 1,,,
CN12,Canonical_None,summit,28,,Familiar words,1,1,870,85,session 1,,,
CN12,Canonical_None,credenner,125,651,"New words, trained pronunciation",1,1,1002,86,session 1,none,nasal,
CN12,Canonical_None,spoon,27,,Familiar words,1,1,918,87,session 1,,,
CN12,Canonical_None,trenner,104,506,"New words, trained pronunciation",1,1,709,88,session 1,canonical,nasal,
CN12,Canonical_None,teenager,29,,Familiar words,1,1,778,89,session 1,,,
CN12,Canonical_None,bredento,60,752,"New words, canonical pronunciation",4,1,1185,90,session 1,canonical,nasal,0
CN12,Canonical_None,bencil,83,,Nonwords,4,1,1782,91,session 1,,,
CN12,Canonical_None,dansher,73,,Nonwords,4,1,649,92,session 1,,,
CN12,Canonical_None,pribeddy,116,620,"New words, trained pronunciation",1,1,830,93,session 1,none,flap,
CN12,Canonical_None,lucrunny,127,701,"New words, trained pronunciation",1,1,897,94,session 1,none,nasal,
CN12,Canonical_None,veddetus,115,896,"New words, trained pronunciation",1,1,591,95,session 1,none,flap,
CN12,Canonical_None,slyttenee,48,902,"New words, canonical pronunciation",4,1,1239,96,session 1,none,flap,
CN12,Canonical_None,slyddenee,112,863,"New words, trained pronunciation",1,1,1042,97,session 1,none,flap,
CN12,Canonical_None,vouddy,102,613,"New words, trained pronunciation",1,1,658,98,session 1,none,flap,
CN12,Canonical_None,balloom,65,,Nonwords,4,1,873,99,session 1,,,
CN12,Canonical_None,lucrunty,63,756,"New words, canonical pronunciation",4,1,1005,100,session 1,none,nasal,
CN12,Canonical_None,cyntergus,57,1099,"New words, canonical pronunciation",4,1,880,101,session 1,none,nasal,
CN12,Canonical_None,ham,14,,Familiar words,1,1,2032,102,session 1,,,
CN12,Canonical_None,byddo,96,644,"New words, trained pronunciation",1,1,728,103,session 1,canonical,flap,
CN12,Canonical_None,pittery,49,599,"New words, canonical pronunciation",1,0,1060,104,session 1,canonical,flap,0
CN12,Canonical_None,priest,20,,Familiar words,1,1,768,105,session 1,,,
CN12,Canonical_None,voutty,38,574,"New words, canonical pronunciation",4,1,676,106,session 1,none,flap,
CN12,Canonical_None,blittus,35,687,"New words, canonical pronunciation",1,0,873,107,session 1,none,flap,
CN12,Canonical_None,selter,87,,Nonwords,4,1,1088,108,session 1,,,
CN12,Canonical_None,bank,2,,Familiar words,1,1,712,109,session 1,,,
CN12,Canonical_None,trounty,45,606,"New words, canonical pronunciation",4,1,775,110,session 1,none,nasal,
CN12,Canonical_None,glunter,41,552,"New words, canonical pronunciation",4,1,979,111,session 1,none,nasal,
CN12,Canonical_None,mechanic,16,,Familiar words,1,1,981,112,session 1,,,
CN12,Canonical_None,bytto,32,644,"New words, canonical pronunciation",4,1,797,113,session 1,canonical,flap,1
CN12,Canonical_None,cabimet,70,,Nonwords,1,0,914,114,session 1,,,
CN12,Canonical_None,ruddow,100,528,"New words, trained pronunciation",1,1,788,115,session 1,canonical,flap,
CN12,Canonical_None,trotty,33,513,"New words, canonical pronunciation",1,0,920,116,session 1,canonical,flap,0
CN12,Canonical_None,bliddus,99,654,"New words, trained pronunciation",1,1,615,117,session 1,none,flap,
CN12,Canonical_None,sunnit,92,,Nonwords,4,1,827,118,session 1,,,
CN12,Canonical_None,trecottus,53,885,"New words, canonical pronunciation",1,0,1200,119,session 1,canonical,flap,0
CN12,Canonical_None,senno,106,557,"New words, trained pronunciation",1,1,766,120,session 1,canonical,nasal,
CN12,Canonical_None,shelter,23,,Familiar words,1,1,1048,121,session 1,,,
CN12,Canonical_None,festival,10,,Familiar words,1,1,800,122,session 1,,,
CN12,Canonical_None,trounny,109,568,"New words, trained pronunciation",1,1,1065,123,session 1,none,nasal,
CN12,Canonical_None,abron,64,,Nonwords,4,1,707,124,session 1,,,
CN12,Canonical_None,gleanty,47,588,"New words, canonical pronunciation",1,0,841,125,session 1,canonical,nasal,1
CN12,Canonical_None,suspinnus,126,1062,"New words, trained pronunciation",1,1,1065,126,session 1,canonical,nasal,
CN12,Canonical_None,restaurant,21,,Familiar words,1,1,1057,127,session 1,,,
CN12,Canonical_None,prain,69,,Nonwords,-1,0,-1,0,session 2,,,
CN12,Canonical_None,sento,42,637,"New words, canonical pronunciation",-1,0,-1,1,session 2,canonical,nasal,1
CN12,Canonical_None,basketball,4,,Familiar words,-1,0,-1,2,session 2,,,
CN12,Canonical_None,bunnow,110,568,"New words, trained pronunciation",-1,0,-1,3,session 2,none,nasal,
CN12,Canonical_None,mushroom,17,,Familiar words,-1,0,-1,4,session 2,,,
CN12,Canonical_None,cluddee,98,478,"New words, trained pronunciation",-1,0,-1,5,session 2,none,flap,
CN12,Canonical_None,pank,66,,Nonwords,-1,0,-1,6,session 2,,,
CN12,Canonical_None,smail,89,,Nonwords,-1,0,-1,7,session 2,,,
CN12,Canonical_None,cassier,71,,Nonwords,-1,0,-1,8,session 2,,,
CN12,Canonical_None,slettow,39,630,"New words, canonical pronunciation",-1,0,-1,9,session 2,canonical,flap,0
CN12,Canonical_None,sounterby,56,848,"New words, canonical pronunciation",-1,0,-1,10,session 2,canonical,nasal,0
CN12,Canonical_None,grape,13,,Familiar words,-1,0,-1,11,session 2,,,
CN12,Canonical_None,cashier,7,,Familiar words,-1,0,-1,12,session 2,,,
CN12,Canonical_None,crame,72,,Nonwords,-1,0,-1,13,session 2,,,
CN12,Canonical_None,teemager,93,,Nonwords,-1,0,-1,14,session 2,,,
CN12,Canonical_None,dancer,9,,Familiar words,-1,0,-1,15,session 2,,,
CN12,Canonical_None,barrel,3,,Familiar words,-1,0,-1,16,session 2,,,
CN12,Canonical_None,smounnus,108,968,"New words, trained pronunciation",-1,0,-1,17,session 2,canonical,nasal,
CN12,Canonical_None,troddy,97,588,"New words, trained pronunciation",-1,0,-1,18,session 2,canonical,flap,
CN12,Canonical_None,glunner,105,546,"New words, trained pronunciation",-1,0,-1,19,session 2,none,nasal,
CN12,Canonical_None,buntow,46,630,"New words, canonical pronunciation",-1,0,-1,20,session 2,none,nasal,
CN12,Canonical_None,sceaneddy,119,937,"New words, trained pronunciation",-1,0,-1,21,session 2,canonical,flap,
CN12,Canonical_None,spearottus,54,1058,"New words, canonical pronunciation",-1,0,-1,22,session 2,none,flap,
CN12,Canonical_None,prounter,43,519,"New words, canonical pronunciation",-1,0,-1,23,session 2,none,nasal,
CN12,Canonical_None,prounner,107,450,"New words, trained pronunciation",-1,0,-1,24,session 2,none,nasal,
CN12,Canonical_None,han,78,,Nonwords,-1,0,-1,25,session 2,,,
CN12,Canonical_None,sleddow,103,620,"New words, trained pronunciation",-1,0,-1,26,session 2,canonical,flap,
CN12,Canonical_None,nushroom,81,,Nonwords,-1,0,-1,27,session 2,,,
CN12,Canonical_None,grabe,77,,Nonwords,-1,0,-1,28,session 2,,,
CN12,Canonical_None,briest,84,,Nonwords,-1,0,-1,29,session 2,,,
CN12,Canonical_None,pencil,19,,Familiar words,-1,0,-1,30,session 2,,,
CN12,Canonical_None,nechanic,80,,Nonwords,-1,0,-1,31,session 2,,,
CN12,Canonical_None,fluttow,37,632,"New words, canonical pronunciation",-1,0,-1,32,session 2,none,flap,
CN12,Canonical_None,balloon,1,,Familiar words,-1,0,-1,33,session 2,,,
CN12,Canonical_None,pribetty,52,670,"New words, canonical pronunciation",-1,0,-1,34,session 2,none,flap,
CN12,Canonical_None,vintimal,58,680,"New words, canonical pronunciation",-1,0,-1,35,session 2,canonical,nasal,1
CN12,Canonical_None,reshtaurant,85,,Nonwords,-1,0,-1,36,session 2,,,
CN12,Canonical_None,credenter,61,710,"New words, canonical pronunciation",-1,0,-1,37,session 2,none,nasal,
CN12,Canonical_None,suspintus,62,1117,"New words, canonical pronunciation",-1,0,-1,38,session 2,canonical,nasal,1
CN12,Canonical_None,fish,11,,Familiar words,-1,0,-1,39,session 2,,,
CN12,Canonical_None,smountus,44,959,"New words, canonical pronunciation",-1,0,-1,40,session 2,canonical,nasal,0
CN12,Canonical_None,gleanny,111,521,"New words, trained pronunciation",-1,0,-1,41,session 2,canonical,nasal,
CN12,Canonical_None,sounnerby,120,842,"New words, trained pronunciation",-1,0,-1,42,session 2,canonical,nasal,
CN12,Canonical_None,crane,8,,Familiar words,-1,0,-1,43,session 2,,,
CN12,Canonical_None,rubbish,22,,Familiar words,-1,0,-1,44,session 2,,,
CN12,Canonical_None,fiss,75,,Nonwords,-1,0,-1,45,session 2,,,
CN12,Canonical_None,vinnimal,122,697,"New words, trained pronunciation",-1,0,-1,46,session 2,canonical,nasal,
CN12,Canonical_None,brain,5,,Familiar words,-1,0,-1,47,session 2,,,
CN12,Canonical_None,sceanetty,55,883,"New words, canonical pronunciation",-1,0,-1,48,session 2,canonical,flap,1
CN12,Canonical_None,trenter,40,550,"New words, canonical pronunciation",-1,0,-1,49,session 2,canonical,nasal,0
CN12,Canonical_None,apron,0,,Familiar words,-1,0,-1,50,session 2,,,
CN12,Canonical_None,vegetable,30,,Familiar words,-1,0,-1,51,session 2,,,
CN12,Canonical_None,window,31,,Familiar words,-1,0,-1,52,session 2,,,
CN12,Canonical_None,spentogy,59,851,"New words, canonical pronunciation",-1,0,-1,53,session 2,none,nasal,
CN12,Canonical_None,herpivore,79,,Nonwords,-1,0,-1,54,session 2,,,
CN12,Canonical_None,palashe,82,,Nonwords,-1,0,-1,55,session 2,,,
CN12,Canonical_None,feshtival,74,,Nonwords,-1,0,-1,56,session 2,,,
CN12,Canonical_None,herbivore,15,,Familiar words,-1,0,-1,57,session 2,,,
CN12,Canonical_None,glass,12,,Familiar words,-1,0,-1,58,session 2,,,
CN12,Canonical_None,ruttow,36,578,"New words, canonical pronunciation",-1,0,-1,59,session 2,canonical,flap,0
CN12,Canonical_None,snake,26,,Familiar words,-1,0,-1,60,session 2,,,
CN12,Canonical_None,shnake,90,,Nonwords,-1,0,-1,61,session 2,,,
CN12,Canonical_None,bashketball,68,,Nonwords,-1,0,-1,62,session 2,,,
CN12,Canonical_None,parrel,67,,Nonwords,-1,0,-1,63,session 2,,,
CN12,Canonical_None,glash,76,,Nonwords,-1,0,-1,64,session 2,,,
CN12,Canonical_None,cluttee,34,463,"New words, canonical pronunciation",-1,0,-1,65,session 2,none,flap,
CN12,Canonical_None,snail,25,,Familiar words,-1,0,-1,66,session 2,,,
CN12,Canonical_None,vettetus,51,900,"New words, canonical pronunciation",-1,0,-1,67,session 2,none,flap,
CN12,Canonical_None,ruppish,86,,Nonwords,-1,0,-1,68,session 2,,,
CN12,Canonical_None,trettemus,50,749,"New words, canonical pronunciation",-1,0,-1,69,session 2,canonical,flap,0
CN12,Canonical_None,trecoddus,117,860,"New words, trained pronunciation",-1,0,-1,70,session 2,canonical,flap,
CN12,Canonical_None,cynnergus,121,1023,"New words, trained pronunciation",-1,0,-1,71,session 2,none,nasal,
CN12,Canonical_None,shirt,24,,Familiar words,-1,0,-1,72,session 2,,,
CN12,Canonical_None,cabinet,6,,Familiar words,-1,0,-1,73,session 2,,,
CN12,Canonical_None,bredenno,124,696,"New words, trained pronunciation",-1,0,-1,74,session 2,canonical,nasal,
CN12,Canonical_None,sirt,88,,Nonwords,-1,0,-1,75,session 2,,,
CN12,Canonical_None,spoom,91,,Nonwords,-1,0,-1,76,session 2,,,
CN12,Canonical_None,spearoddus,118,1034,"New words, trained pronunciation",-1,0,-1,77,session 2,none,flap,
CN12,Canonical_None,spennogy,123,794,"New words, trained pronunciation",-1,0,-1,78,session 2,none,nasal,
CN12,Canonical_None,fluddow,101,570,"New words, trained pronunciation",-1,0,-1,79,session 2,none,flap,
CN12,Canonical_None,treddemus,114,737,"New words, trained pronunciation",-1,0,-1,80,session 2,canonical,flap,
CN12,Canonical_None,palace,18,,Familiar words,-1,0,-1,81,session 2,,,
CN12,Canonical_None,piddery,113,610,"New words, trained pronunciation",-1,0,-1,82,session 2,canonical,flap,
CN12,Canonical_None,wimdow,95,,Nonwords,-1,0,-1,83,session 2,,,
CN12,Canonical_None,vegetaple,94,,Nonwords,-1,0,-1,84,session 2,,,
CN12,Canonical_None,summit,28,,Familiar words,-1,0,-1,85,session 2,,,
CN12,Canonical_None,credenner,125,651,"New words, trained pronunciation",-1,0,-1,86,session 2,none,nasal,
CN12,Canonical_None,spoon,27,,Familiar words,-1,0,-1,87,session 2,,,
CN12,Canonical_None,trenner,104,506,"New words, trained pronunciation",-1,0,-1,88,session 2,canonical,nasal,
CN12,Canonical_None,teenager,29,,Familiar words,-1,0,-1,89,session 2,,,
CN12,Canonical_None,bredento,60,752,"New words, canonical pronunciation",-1,0,-1,90,session 2,canonical,nasal,0
CN12,Canonical_None,bencil,83,,Nonwords,-1,0,-1,91,session 2,,,
CN12,Canonical_None,dansher,73,,Nonwords,-1,0,-1,92,session 2,,,
CN12,Canonical_None,pribeddy,116,620,"New words, trained pronunciation",-1,0,-1,93,session 2,none,flap,
CN12,Canonical_None,lucrunny,127,701,"New words, trained pronunciation",-1,0,-1,94,session 2,none,nasal,
CN12,Canonical_None,veddetus,115,896,"New words, trained pronunciation",-1,0,-1,95,session 2,none,flap,
CN12,Canonical_None,slyttenee,48,902,"New words, canonical pronunciation",-1,0,-1,96,session 2,none,flap,
CN12,Canonical_None,slyddenee,112,863,"New words, trained pronunciation",-1,0,-1,97,session 2,none,flap,
CN12,Canonical_None,vouddy,102,613,"New words, trained pronunciation",-1,0,-1,98,session 2,none,flap,
CN12,Canonical_None,balloom,65,,Nonwords,-1,0,-1,99,session 2,,,
CN12,Canonical_None,lucrunty,63,756,"New words, canonical pronunciation",-1,0,-1,100,session 2,none,nasal,
CN12,Canonical_None,cyntergus,57,1099,"New words, canonical pronunciation",-1,0,-1,101,session 2,none,nasal,
CN12,Canonical_None,ham,14,,Familiar words,-1,0,-1,102,session 2,,,
CN12,Canonical_None,byddo,96,644,"New words, trained pronunciation",-1,0,-1,103,session 2,canonical,flap,
CN12,Canonical_None,pittery,49,599,"New words, canonical pronunciation",-1,0,-1,104,session 2,canonical,flap,0
CN12,Canonical_None,priest,20,,Familiar words,-1,0,-1,105,session 2,,,
CN12,Canonical_None,voutty,38,574,"New words, canonical pronunciation",-1,0,-1,106,session 2,none,flap,
CN12,Canonical_None,blittus,35,687,"New words, canonical pronunciation",-1,0,-1,107,session 2,none,flap,
CN12,Canonical_None,selter,87,,Nonwords,-1,0,-1,108,session 2,,,
CN12,Canonical_None,bank,2,,Familiar words,-1,0,-1,109,session 2,,,
CN12,Canonical_None,trounty,45,606,"New words, canonical pronunciation",-1,0,-1,110,session 2,none,nasal,
CN12,Canonical_None,glunter,41,552,"New words, canonical pronunciation",-1,0,-1,111,session 2,none,nasal,
CN12,Canonical_None,mechanic,16,,Familiar words,-1,0,-1,112,session 2,,,
CN12,Canonical_None,bytto,32,644,"New words, canonical pronunciation",-1,0,-1,113,session 2,canonical,flap,1
CN12,Canonical_None,cabimet,70,,Nonwords,-1,0,-1,114,session 2,,,
CN12,Canonical_None,ruddow,100,528,"New words, trained pronunciation",-1,0,-1,115,session 2,canonical,flap,
CN12,Canonical_None,trotty,33,513,"New words, canonical pronunciation",-1,0,-1,116,session 2,canonical,flap,0
CN12,Canonical_None,bliddus,99,654,"New words, trained pronunciation",-1,0,-1,117,session 2,none,flap,
CN12,Canonical_None,sunnit,92,,Nonwords,-1,0,-1,118,session 2,,,
CN12,Canonical_None,trecottus,53,885,"New words, canonical pronunciation",-1,0,-1,119,session 2,canonical,flap,0
CN12,Canonical_None,senno,106,557,"New words, trained pronunciation",-1,0,-1,120,session 2,canonical,nasal,
CN12,Canonical_None,shelter,23,,Familiar words,-1,0,-1,121,session 2,,,
CN12,Canonical_None,festival,10,,Familiar words,-1,0,-1,122,session 2,,,
CN12,Canonical_None,trounny,109,568,"New words, trained pronunciation",-1,0,-1,123,session 2,none,nasal,
CN12,Canonical_None,abron,64,,Nonwords,-1,0,-1,124,session 2,,,
CN12,Canonical_None,gleanty,47,588,"New words, canonical pronunciation",-1,0,-1,125,session 2,canonical,nasal,1
CN12,Canonical_None,suspinnus,126,1062,"New words, trained pronunciation",-1,0,-1,126,session 2,canonical,nasal,
CN12,Canonical_None,restaurant,21,,Familiar words,-1,0,-1,127,session 2,,,
CN12,Canonical_None,prain,69,,Nonwords,4,1,2216,0,session 3,,,
CN12,Canonical_None,sento,42,637,"New words, canonical pronunciation",1,0,1619,1,session 3,canonical,nasal,1
CN12,Canonical_None,basketball,4,,Familiar words,1,1,804,2,session 3,,,
CN12,Canonical_None,bunnow,110,568,"New words, trained pronunciation",1,1,600,3,session 3,none,nasal,
CN12,Canonical_None,mushroom,17,,Familiar words,1,1,936,4,session 3,,,
CN12,Canonical_None,cluddee,98,478,"New words, trained pronunciation",1,1,669,5,session 3,none,flap,
CN12,Canonical_None,pank,66,,Nonwords,4,1,684,6,session 3,,,
CN12,Canonical_None,smail,89,,Nonwords,4,1,702,7,session 3,,,
CN12,Canonical_None,cassier,71,,Nonwords,4,1,657,8,session 3,,,
CN12,Canonical_None,slettow,39,630,"New words, canonical pronunciation",1,0,759,9,session 3,canonical,flap,0
CN12,Canonical_None,sounterby,56,848,"New words, canonical pronunciation",1,0,885,10,session 3,canonical,nasal,0
CN12,Canonical_None,grape,13,,Familiar words,1,1,642,11,session 3,,,
CN12,Canonical_None,cashier,7,,Familiar words,1,1,642,12,session 3,,,
CN12,Canonical_None,crame,72,,Nonwords,4,1,698,13,session 3,,,
CN12,Canonical_None,teemager,93,,Nonwords,1,0,810,14,session 3,,,
CN12,Canonical_None,dancer,9,,Familiar words,1,1,569,15,session 3,,,
CN12,Canonical_None,barrel,3,,Familiar words,1,1,541,16,session 3,,,
CN12,Canonical_None,smounnus,108,968,"New words, trained pronunciation",1,1,848,17,session 3,canonical,nasal,
CN12,Canonical_None,troddy,97,588,"New words, trained pronunciation",1,1,1036,18,session 3,canonical,flap,
CN12,Canonical_None,glunner,105,546,"New words, trained pronunciation",1,1,582,19,session 3,none,nasal,
CN12,Canonical_None,buntow,46,630,"New words, canonical pronunciation",1,0,805,20,session 3,none,nasal,
CN12,Canonical_None,sceaneddy,119,937,"New words, trained pronunciation",1,1,911,21,session 3,canonical,flap,
CN12,Canonical_None,spearottus,54,1058,"New words, canonical pronunciation",1,0,734,22,session 3,none,flap,
CN12,Canonical_None,prounter,43,519,"New words, canonical pronunciation",1,0,790,23,session 3,none,nasal,
CN12,Canonical_None,prounner,107,450,"New words, trained pronunciation",1,1,857,24,session 3,none,nasal,
CN12,Canonical_None,han,78,,Nonwords,4,1,788,25,session 3,,,
CN12,Canonical_None,sleddow,103,620,"New words, trained pronunciation",1,1,772,26,session 3,canonical,flap,
CN12,Canonical_None,nushroom,81,,Nonwords,4,1,549,27,session 3,,,
CN12,Canonical_None,grabe,77,,Nonwords,4,1,597,28,session 3,,,
CN12,Canonical_None,briest,84,,Nonwords,4,1,865,29,session 3,,,
CN12,Canonical_None,pencil,19,,Familiar words,1,1,553,30,session 3,,,
CN12,Canonical_None,nechanic,80,,Nonwords,4,1,574,31,session 3,,,
CN12,Canonical_None,fluttow,37,632,"New words, canonical pronunciation",1,0,668,32,session 3,none,flap,
CN12,Canonical_None,balloon,1,,Familiar words,1,1,735,33,session 3,,,
CN12,Canonical_None,pribetty,52,670,"New words, canonical pronunciation",1,0,590,34,session 3,none,flap,
CN12,Canonical_None,vintimal,58,680,"New words, canonical pronunciation",1,0,765,35,session 3,canonical,nasal,1
CN12,Canonical_None,reshtaurant,85,,Nonwords,4,1,872,36,session 3,,,
CN12,Canonical_None,credenter,61,710,"New words, canonical pronunciation",1,0,840,37,session 3,none,nasal,
CN12,Canonical_None,suspintus,62,1117,"New words, canonical pronunciation",1,0,1087,38,session 3,canonical,nasal,1
CN12,Canonical_None,fish,11,,Familiar words,1,1,571,39,session 3,,,
CN12,Canonical_None,smountus,44,959,"New words, canonical pronunciation",1,0,835,40,session 3,canonical,nasal,0
CN12,Canonical_None,gleanny,111,521,"New words, trained pronunciation",1,1,595,41,session 3,canonical,nasal,
CN12,Canonical_None,sounnerby,120,842,"New words, trained pronunciation",1,1,729,42,session 3,canonical,nasal,
CN12,Canonical_None,crane,8,,Familiar words,1,1,870,43,session 3,,,
CN12,Canonical_None,rubbish,22,,Familiar words,1,1,701,44,session 3,,,
CN12,Canonical_None,fiss,75,,Nonwords,4,1,700,45,session 3,,,
CN12,Canonical_None,vinnimal,122,697,"New words, trained pronunciation",1,1,690,46,session 3,canonical,nasal,
CN12,Canonical_None,brain,5,,Familiar words,1,1,412,47,session 3,,,
CN12,Canonical_None,sceanetty,55,883,"New words, canonical pronunciation",1,0,864,48,session 3,canonical,flap,1
CN12,Canonical_None,trenter,40,550,"New words, canonical pronunciation",1,0,540,49,session 3,canonical,nasal,0
CN12,Canonical_None,apron,0,,Familiar words,1,1,651,50,session 3,,,
CN12,Canonical_None,vegetable,30,,Familiar words,1,1,774,51,session 3,,,
CN12,Canonical_None,window,31,,Familiar words,1,1,587,52,session 3,,,
CN12,Canonical_None,spentogy,59,851,"New words, canonical pronunciation",1,0,910,53,session 3,none,nasal,
CN12,Canonical_None,herpivore,79,,Nonwords,4,1,812,54,session 3,,,
CN12,Canonical_None,palashe,82,,Nonwords,4,1,690,55,session 3,,,
CN12,Canonical_None,feshtival,74,,Nonwords,4,1,627,56,session 3,,,
CN12,Canonical_None,herbivore,15,,Familiar words,1,1,596,57,session 3,,,
CN12,Canonical_None,glass,12,,Familiar words,1,1,517,58,session 3,,,
CN12,Canonical_None,ruttow,36,578,"New words, canonical pronunciation",1,0,584,59,session 3,canonical,flap,0
CN12,Canonical_None,snake,26,,Familiar words,1,1,646,60,session 3,,,
CN12,Canonical_None,shnake,90,,Nonwords,4,1,479,61,session 3,,,
CN12,Canonical_None,bashketball,68,,Nonwords,4,1,554,62,session 3,,,
CN12,Canonical_None,parrel,67,,Nonwords,4,1,491,63,session 3,,,
CN12,Canonical_None,glash,76,,Nonwords,4,1,597,64,session 3,,,
CN12,Canonical_None,cluttee,34,463,"New words, canonical pronunciation",1,0,757,65,session 3,none,flap,
CN12,Canonical_None,snail,25,,Familiar words,1,1,744,66,session 3,,,
CN12,Canonical_None,vettetus,51,900,"New words, canonical pronunciation",1,0,1046,67,session 3,none,flap,
CN12,Canonical_None,ruppish,86,,Nonwords,4,1,519,68,session 3,,,
CN12,Canonical_None,trettemus,50,749,"New words, canonical pronunciation",4,1,787,69,session 3,canonical,flap,0
CN12,Canonical_None,trecoddus,117,860,"New words, trained pronunciation",1,1,584,70,session 3,canonical,flap,
CN12,Canonical_None,cynnergus,121,1023,"New words, trained pronunciation",1,1,636,71,session 3,none,nasal,
CN12,Canonical_None,shirt,24,,Familiar words,1,1,720,72,session 3,,,
CN12,Canonical_None,cabinet,6,,Familiar words,1,1,587,73,session 3,,,
CN12,Canonical_None,bredenno,124,696,"New words, trained pronunciation",1,1,787,74,session 3,canonical,nasal,
CN12,Canonical_None,sirt,88,,Nonwords,4,1,430,75,session 3,,,
CN12,Canonical_None,spoom,91,,Nonwords,4,1,874,76,session 3,,,
CN12,Canonical_None,spearoddus,118,1034,"New words, trained pronunciation",1,1,850,77,session 3,none,flap,
CN12,Canonical_None,spennogy,123,794,"New words, trained pronunciation",1,1,794,78,session 3,none,nasal,
CN12,Canonical_None,fluddow,101,570,"New words, trained pronunciation",1,1,683,79,session 3,none,flap,
CN12,Canonical_None,treddemus,114,737,"New words, trained pronunciation",1,1,568,80,session 3,canonical,flap,
CN12,Canonical_None,palace,18,,Familiar words,1,1,651,81,session 3,,,
CN12,Canonical_None,piddery,113,610,"New words, trained pronunciation",1,1,502,82,session 3,canonical,flap,
CN12,Canonical_None,wimdow,95,,Nonwords,4,1,573,83,session 3,,,
CN12,Canonical_None,vegetaple,94,,Nonwords,4,1,456,84,session 3,,,
CN12,Canonical_None,summit,28,,Familiar words,1,1,699,85,session 3,,,
CN12,Canonical_None,credenner,125,651,"New words, trained pronunciation",1,1,745,86,session 3,none,nasal,
CN12,Canonical_None,spoon,27,,Familiar words,1,1,940,87,session 3,,,
CN12,Canonical_None,trenner,104,506,"New words, trained pronunciation",1,1,629,88,session 3,canonical,nasal,
CN12,Canonical_None,teenager,29,,Familiar words,1,1,689,89,session 3,,,
CN12,Canonical_None,bredento,60,752,"New words, canonical pronunciation",1,0,452,90,session 3,canonical,nasal,0
CN12,Canonical_None,bencil,83,,Nonwords,4,1,558,91,session 3,,,
CN12,Canonical_None,dansher,73,,Nonwords,4,1,644,92,session 3,,,
CN12,Canonical_None,pribeddy,116,620,"New words, trained pronunciation",1,1,659,93,session 3,none,flap,
CN12,Canonical_None,lucrunny,127,701,"New words, trained pronunciation",1,1,744,94,session 3,none,nasal,
CN12,Canonical_None,veddetus,115,896,"New words, trained pronunciation",1,1,730,95,session 3,none,flap,
CN12,Canonical_None,slyttenee,48,902,"New words, canonical pronunciation",1,0,638,96,session 3,none,flap,
CN12,Canonical_None,slyddenee,112,863,"New words, trained pronunciation",1,1,728,97,session 3,none,flap,
CN12,Canonical_None,vouddy,102,613,"New words, trained pronunciation",1,1,613,98,session 3,none,flap,
CN12,Canonical_None,balloom,65,,Nonwords,4,1,892,99,session 3,,,
CN12,Canonical_None,lucrunty,63,756,"New words, canonical pronunciation",1,0,926,100,session 3,none,nasal,
CN12,Canonical_None,cyntergus,57,1099,"New words, canonical pronunciation",4,1,725,101,session 3,none,nasal,
CN12,Canonical_None,ham,14,,Familiar words,1,1,525,102,session 3,,,
CN12,Canonical_None,byddo,96,644,"New words, trained pronunciation",4,0,745,103,session 3,canonical,flap,
CN12,Canonical_None,pittery,49,599,"New words, canonical pronunciation",4,1,729,104,session 3,canonical,flap,0
CN12,Canonical_None,priest,20,,Familiar words,1,1,733,105,session 3,,,
CN12,Canonical_None,voutty,38,574,"New words, canonical pronunciation",4,1,684,106,session 3,none,flap,
CN12,Canonical_None,blittus,35,687,"New words, canonical pronunciation",4,1,871,107,session 3,none,flap,
CN12,Canonical_None,selter,87,,Nonwords,4,1,1057,108,session 3,,,
CN12,Canonical_None,bank,2,,Familiar words,1,1,432,109,session 3,,,
CN12,Canonical_None,trounty,45,606,"New words, canonical pronunciation",4,1,719,110,session 3,none,nasal,
CN12,Canonical_None,glunter,41,552,"New words, canonical pronunciation",1,0,804,111,session 3,none,nasal,
CN12,Canonical_None,mechanic,16,,Familiar words,1,1,774,112,session 3,,,
CN12,Canonical_None,bytto,32,644,"New words, canonical pronunciation",4,1,1045,113,session 3,canonical,flap,1
CN12,Canonical_None,cabimet,70,,Nonwords,1,0,938,114,session 3,,,
CN12,Canonical_None,ruddow,100,528,"New words, trained pronunciation",1,1,579,115,session 3,canonical,flap,
CN12,Canonical_None,trotty,33,513,"New words, canonical pronunciation",1,0,852,116,session 3,canonical,flap,0
CN12,Canonical_None,bliddus,99,654,"New words, trained pronunciation",1,1,520,117,session 3,none,flap,
CN12,Canonical_None,sunnit,92,,Nonwords,4,1,822,118,session 3,,,
