ID,group,item,item.number,button.pressed,item.position,accuracy,RT,trial,block,repetition,spelling.learned
CN01,Canonical_None,byddo,0,-1,1,0,-1,0,B1,1,canonical
CN01,Canonical_None,troddy,1,-1,0,0,-1,1,B1,1,canonical
CN01,Canonical_None,senno,10,-1,1,0,-1,2,B1,1,canonical
CN01,Canonical_None,bliddus,3,-1,0,0,-1,3,B1,1,none
CN01,Canonical_None,vouddy,6,1,0,1,1534,4,B1,1,none
CN01,Canonical_None,gleanny,15,4,1,1,1401,5,B1,1,canonical
CN01,Canonical_None,ruddow,4,1,0,1,2073,6,B1,1,canonical
CN01,Canonical_None,fluddow,5,1,1,0,2027,7,B1,1,none
CN01,Canonical_None,glunner,9,1,1,0,1751,8,B1,1,none
CN01,Canonical_None,suspinnus,30,1,1,0,2220,9,B1,1,canonical
CN01,Canonical_None,bunnow,14,-1,0,0,-1,10,B1,1,none
CN01,Canonical_None,prounner,11,4,1,1,197,11,B1,1,none
CN01,Canonical_None,sleddow,7,-1,1,0,-1,12,B1,1,canonical
CN01,Canonical_None,smounnus,12,-1,0,0,-1,13,B1,1,canonical
CN01,Canonical_None,spennogy,27,-1,1,0,-1,14,B1,1,none
CN01,Canonical_None,piddery,17,1,1,0,1363,15,B1,1,canonical
CN01,Canonical_None,vinnimal,26,4,0,0,1270,16,B1,1,canonical
CN01,Canonical_None,lucrunny,31,4,1,1,884,17,B1,1,none
CN01,Canonical_None,sounnerby,24,4,1,1,1081,18,B1,1,canonical
CN01,Canonical_None,sceaneddy,23,4,0,0,1332,19,B1,1,canonical
CN01,Canonical_None,trenner,8,1,1,0,897,20,B1,1,canonical
CN01,Canonical_None,cynnergus,25,4,1,1,1151,21,B1,1,none
CN01,Canonical_None,treddemus,18,1,0,1,844,22,B1,1,canonical
CN01,Canonical_None,pribeddy,20,4,1,1,710,23,B1,1,none
CN01,Canonical_None,veddetus,19,1,0,1,853,24,B1,1,none
CN01,Canonical_None,trounny,13,1,0,1,1013,25,B1,1,none
CN01,Canonical_None,credenner,29,4,1,1,805,26,B1,1,none
CN01,Canonical_None,cluddee,2,1,0,1,1062,27,B1,1,none
CN01,Canonical_None,slyddenee,16,1,0,1,844,28,B1,1,none
CN01,Canonical_None,spearoddus,22,4,1,1,1338,29,B1,1,none
CN01,Canonical_None,bredenno,28,4,0,0,910,30,B1,1,canonical
CN01,Canonical_None,trecoddus,21,4,1,1,676,31,B1,1,canonical
CN01,Canonical_None,vinnimal,26,1,1,0,1525,32,B1,2,canonical
CN01,Canonical_None,treddemus,18,4,1,1,839,33,B1,2,canonical
CN01,Canonical_None,ruddow,4,4,1,1,833,34,B1,2,canonical
CN01,Canonical_None,spennogy,27,1,0,1,910,35,B1,2,none
CN01,Canonical_None,cluddee,2,1,1,0,925,36,B1,2,none
CN01,Canonical_None,byddo,0,1,1,0,904,37,B1,2,canonical
CN01,Canonical_None,fluddow,5,4,1,1,809,38,B1,2,none
CN01,Canonical_None,sleddow,7,1,1,0,884,39,B1,2,canonical
CN01,Canonical_None,piddery,17,1,0,1,787,40,B1,2,canonical
CN01,Canonical_None,sounnerby,24,1,1,0,635,41,B1,2,canonical
CN01,Canonical_None,bredenno,28,4,1,1,895,42,B1,2,canonical
CN01,Canonical_None,lucrunny,31,4,0,0,826,43,B1,2,none
CN01,Canonical_None,smounnus,12,4,0,0,1005,44,B1,2,canonical
CN01,Canonical_None,spearoddus,22,1,0,1,1217,45,B1,2,none
CN01,Canonical_None,vouddy,6,1,0,1,816,46,B1,2,none
CN01,Canonical_None,veddetus,19,4,0,0,948,47,B1,2,none
CN01,Canonical_None,troddy,1,1,1,0,732,48,B1,2,canonical
CN01,Canonical_None,trecoddus,21,4,0,0,847,49,B1,2,canonical
CN01,Canonical_None,gleanny,15,1,0,1,640,50,B1,2,canonical
CN01,Canonical_None,senno,10,1,0,1,755,51,B1,2,canonical
CN01,Canonical_None,bunnow,14,4,1,1,633,52,B1,2,none
CN01,Canonical_None,suspinnus,30,1,1,0,816,53,B1,2,canonical
CN01,Canonical_None,cynnergus,25,1,0,1,844,54,B1,2,none
CN01,Canonical_None,trounny,13,1,0,1,626,55,B1,2,none
CN01,Canonical_None,glunner,9,1,0,1,641,56,B1,2,none
CN01,Canonical_None,credenner,29,1,0,1,892,57,B1,2,none
CN01,Canonical_None,pribeddy,20,4,1,1,731,58,B1,2,none
CN01,Canonical_None,bliddus,3,1,1,0,690,59,B1,2,none
CN01,Canonical_None,prounner,11,4,1,1,878,60,B1,2,none
CN01,Canonical_None,trenner,8,4,1,1,859,61,B1,2,canonical
CN01,Canonical_None,slyddenee,16,1,0,1,715,62,B1,2,none
CN01,Canonical_None,sceaneddy,23,1,0,1,1143,63,B1,2,canonical
CN01,Canonical_None,byddo,0,4,0,0,764,64,B1,3,canonical
CN01,Canonical_None,ruddow,4,1,0,1,1184,65,B1,3,canonical
CN01,Canonical_None,trenner,8,4,0,0,925,66,B1,3,canonical
CN01,Canonical_None,cluddee,2,1,0,1,1067,67,B1,3,none
CN01,Canonical_None,spennogy,27,4,1,1,877,68,B1,3,none
CN01,Canonical_None,trecoddus,21,1,0,1,1302,69,B1,3,canonical
CN01,Canonical_None,pribeddy,20,4,0,0,706,70,B1,3,none
CN01,Canonical_None,sounnerby,24,1,0,1,1255,71,B1,3,canonical
CN01,Canonical_None,smounnus,12,4,0,0,1197,72,B1,3,canonical
CN01,Canonical_None,suspinnus,30,4,1,1,1030,73,B1,3,canonical
CN01,Canonical_None,trounny,13,4,0,0,1062,74,B1,3,none
CN01,Canonical_None,vouddy,6,4,1,1,1145,75,B1,3,none
CN01,Canonical_None,bredenno,28,4,1,1,1326,76,B1,3,canonical
CN01,Canonical_None,lucrunny,31,1,1,0,977,77,B1,3,none
CN01,Canonical_None,bliddus,3,1,1,0,1017,78,B1,3,none
CN01,Canonical_None,veddetus,19,1,1,0,1004,79,B1,3,none
CN01,Canonical_None,gleanny,15,4,1,1,1148,80,B1,3,canonical
CN01,Canonical_None,cynnergus,25,1,0,1,1021,81,B1,3,none
CN01,Canonical_None,credenner,29,4,1,1,1728,82,B1,3,none
CN01,Canonical_None,spearoddus,22,4,0,0,1524,83,B1,3,none
CN01,Canonical_None,vinnimal,26,4,0,0,1338,84,B1,3,canonical
CN01,Canonical_None,prounner,11,4,1,1,682,85,B1,3,none
CN01,Canonical_None,slyddenee,16,4,1,1,1173,86,B1,3,none
CN01,Canonical_None,piddery,17,4,1,1,858,87,B1,3,canonical
CN01,Canonical_None,sceaneddy,23,1,0,1,1579,88,B1,3,canonical
CN01,Canonical_None,troddy,1,4,1,1,1031,89,B1,3,canonical
CN01,Canonical_None,sleddow,7,4,1,1,1340,90,B1,3,canonical
CN01,Canonical_None,senno,10,1,0,1,1067,91,B1,3,canonical
CN01,Canonical_None,fluddow,5,1,0,1,1500,92,B1,3,none
CN01,Canonical_None,bunnow,14,1,1,0,783,93,B1,3,none
CN01,Canonical_None,glunner,9,1,0,1,906,94,B1,3,none
CN01,Canonical_None,treddemus,18,1,0,0,1567,95,B1,3,canonical
CN01,Canonical_None,bunnow,14,1,0,1,1082,96,B1,4,none
CN01,Canonical_None,vouddy,6,4,1,1,1250,97,B1,4,none
CN01,Canonical_None,veddetus,19,4,1,1,1257,98,B1,4,none
CN01,Canonical_None,sleddow,7,4,1,1,984,99,B1,4,canonical
CN01,Canonical_None,trenner,8,4,1,1,1238,100,B1,4,canonical
CN01,Canonical_None,sceaneddy,23,1,0,1,2227,101,B1,4,canonical
CN01,Canonical_None,bliddus,3,1,1,0,756,102,B1,4,none
CN01,Canonical_None,fluddow,5,1,0,0,1029,103,B1,4,none
CN01,Canonical_None,ruddow,4,4,1,1,1585,104,B1,4,canonical
CN01,Canonical_None,smounnus,12,1,0,1,1748,105,B1,4,canonical
CN01,Canonical_None,trecoddus,21,4,1,1,1016,106,B1,4,canonical
CN01,Canonical_None,slyddenee,16,1,0,1,513,107,B1,4,none
CN01,Canonical_None,glunner,9,4,1,1,1666,108,B1,4,none
CN01,Canonical_None,senno,10,4,0,0,1921,109,B1,4,canonical
CN01,Canonical_None,piddery,17,4,1,1,1425,110,B1,4,canonical
CN01,Canonical_None,spearoddus,22,4,0,0,1566,111,B1,4,none
CN01,Canonical_None,prounner,11,1,0,1,707,112,B1,4,none
CN01,Canonical_None,spennogy,27,4,1,1,1319,113,B1,4,none
CN01,Canonical_None,gleanny,15,1,0,1,1903,114,B1,4,canonical
CN01,Canonical_None,bredenno,28,4,1,1,1807,115,B1,4,canonical
CN01,Canonical_None,troddy,1,4,0,0,1504,116,B1,4,canonical
CN01,Canonical_None,pribeddy,20,1,0,1,1014,117,B1,4,none
CN01,Canonical_None,credenner,29,1,1,0,1400,118,B1,4,none
CN01,Canonical_None,vinnimal,26,4,1,1,1274,119,B1,4,canonical
CN01,Canonical_None,sounnerby,24,4,0,0,1790,120,B1,4,canonical
CN01,Canonical_None,byddo,0,1,1,0,1164,121,B1,4,canonical
CN01,Canonical_None,trounny,13,4,1,1,2742,122,B1,4,none
CN01,Canonical_None,treddemus,18,4,0,0,1347,123,B1,4,canonical
CN01,Canonical_None,cluddee,2,1,0,1,1235,124,B1,4,none
CN01,Canonical_None,lucrunny,31,4,1,1,2353,125,B1,4,none
CN01,Canonical_None,suspinnus,30,1,0,1,1924,126,B1,4,canonical
CN01,Canonical_None,cynnergus,25,4,0,0,1700,127,B1,4,none
CN01,Canonical_None,smounnus,12,1,0,0,1561,128,B1,5,canonical
CN01,Canonical_None,troddy,1,1,0,1,1191,129,B1,5,canonical
CN01,Canonical_None,bredenno,28,4,1,1,1159,130,B1,5,canonical
CN01,Canonical_None,slyddenee,16,1,0,1,1006,131,B1,5,none
CN01,Canonical_None,cynnergus,25,1,0,1,2412,132,B1,5,none
CN01,Canonical_None,spearoddus,22,4,1,1,1504,133,B1,5,none
CN01,Canonical_None,fluddow,5,4,1,1,736,134,B1,5,none
CN01,Canonical_None,pribeddy,20,1,0,1,1437,135,B1,5,none
CN01,Canonical_None,ruddow,4,1,0,1,2113,136,B1,5,canonical
CN01,Canonical_None,trenner,8,4,0,0,763,137,B1,5,canonical
CN01,Canonical_None,prounner,11,4,0,0,815,138,B1,5,none
CN01,Canonical_None,vouddy,6,4,0,0,1066,139,B1,5,none
CN01,Canonical_None,credenner,29,1,0,1,1264,140,B1,5,none
CN01,Canonical_None,sceaneddy,23,4,1,1,2061,141,B1,5,canonical
CN01,Canonical_None,glunner,9,4,1,1,2049,142,B1,5,none
CN01,Canonical_None,trounny,13,1,0,1,1023,143,B1,5,none
CN01,Canonical_None,bliddus,3,1,0,1,1163,144,B1,5,none
CN01,Canonical_None,spennogy,27,1,0,1,1560,145,B1,5,none
CN01,Canonical_None,lucrunny,31,4,1,1,1298,146,B1,5,none
CN01,Canonical_None,veddetus,19,1,0,1,1906,147,B1,5,none
CN01,Canonical_None,cluddee,2,4,1,1,1074,148,B1,5,none
CN01,Canonical_None,senno,10,4,1,1,1447,149,B1,5,canonical
CN01,Canonical_None,vinnimal,26,4,1,0,1557,150,B1,5,canonical
CN01,Canonical_None,byddo,0,4,1,1,1403,151,B1,5,canonical
CN01,Canonical_None,sounnerby,24,-1,1,0,-1,152,B1,5,canonical
CN01,Canonical_None,bunnow,14,1,0,1,1425,153,B1,5,none
CN01,Canonical_None,suspinnus,30,4,0,0,1809,154,B1,5,canonical
CN01,Canonical_None,gleanny,15,4,1,1,832,155,B1,5,canonical
CN01,Canonical_None,treddemus,18,1,0,1,1119,156,B1,5,canonical
CN01,Canonical_None,piddery,17,1,0,0,1585,157,B1,5,canonical
CN01,Canonical_None,trecoddus,21,4,1,0,1974,158,B1,5,canonical
CN01,Canonical_None,sleddow,7,4,0,0,2183,159,B1,5,canonical
CN01,Canonical_None,sceaneddy,23,1,0,1,2171,160,B1,6,canonical
CN01,Canonical_None,gleanny,15,4,1,1,2937,161,B1,6,canonical
CN01,Canonical_None,credenner,29,1,0,1,1688,162,B1,6,none
CN01,Canonical_None,suspinnus,30,4,0,0,2756,163,B1,6,canonical
CN01,Canonical_None,senno,10,1,0,1,1286,164,B1,6,canonical
CN01,Canonical_None,trounny,13,4,1,1,1747,165,B1,6,none
CN01,Canonical_None,pribeddy,20,1,0,1,2338,166,B1,6,none
CN01,Canonical_None,byddo,0,4,1,1,1945,167,B1,6,canonical
CN01,Canonical_None,slyddenee,16,1,0,1,1340,168,B1,6,none
CN01,Canonical_None,prounner,11,4,1,1,871,169,B1,6,none
CN01,Canonical_None,vinnimal,26,4,0,0,1957,170,B1,6,canonical
CN01,Canonical_None,bunnow,14,1,0,1,1243,171,B1,6,none
CN01,Canonical_None,cynnergus,25,-1,1,0,-1,172,B1,6,none
CN01,Canonical_None,vouddy,6,1,0,1,1236,173,B1,6,none
CN01,Canonical_None,smounnus,12,4,0,0,1884,174,B1,6,canonical
CN01,Canonical_None,glunner,9,4,1,1,1609,175,B1,6,none
CN01,Canonical_None,sleddow,7,1,0,1,1638,176,B1,6,canonical
CN01,Canonical_None,trecoddus,21,4,1,1,1211,177,B1,6,canonical
CN01,Canonical_None,piddery,17,4,1,1,2208,178,B1,6,canonical
CN01,Canonical_None,cluddee,2,4,1,1,1092,179,B1,6,none
CN01,Canonical_None,bliddus,3,4,1,1,1574,180,B1,6,none
CN01,Canonical_None,lucrunny,31,1,1,0,2444,181,B1,6,none
CN01,Canonical_None,veddetus,19,4,1,1,1807,182,B1,6,none
CN01,Canonical_None,ruddow,4,4,1,1,1189,183,B1,6,canonical
CN01,Canonical_None,bredenno,28,4,1,1,1745,184,B1,6,canonical
CN01,Canonical_None,spearoddus,22,4,1,1,1411,185,B1,6,none
CN01,Canonical_None,treddemus,18,1,1,0,1509,186,B1,6,canonical
CN01,Canonical_None,spennogy,27,4,1,1,2308,187,B1,6,none
CN01,Canonical_None,sounnerby,24,4,1,1,1433,188,B1,6,canonical
CN01,Canonical_None,trenner,8,4,1,1,848,189,B1,6,canonical
CN01,Canonical_None,fluddow,5,4,1,1,791,190,B1,6,none
CN01,Canonical_None,troddy,1,1,1,0,854,191,B1,6,canonical
CN01,Canonical_None,bredenno,28,4,1,1,1662,192,B1,7,canonical
CN01,Canonical_None,piddery,17,4,1,1,725,193,B1,7,canonical
CN01,Canonical_None,pribeddy,20,4,1,1,813,194,B1,7,none
CN01,Canonical_None,slyddenee,16,1,0,1,958,195,B1,7,none
CN01,Canonical_None,gleanny,15,4,1,1,894,196,B1,7,canonical
CN01,Canonical_None,trecoddus,21,1,0,1,2559,197,B1,7,canonical
CN01,Canonical_None,fluddow,5,1,0,1,1069,198,B1,7,none
CN01,Canonical_None,credenner,29,1,1,0,2001,199,B1,7,none
CN01,Canonical_None,sounnerby,24,4,0,0,2795,200,B1,7,canonical
CN01,Canonical_None,sceaneddy,23,4,0,0,2108,201,B1,7,canonical
CN01,Canonical_None,sleddow,7,4,1,1,1460,202,B1,7,canonical
CN01,Canonical_None,trenner,8,1,0,1,2070,203,B1,7,canonical
CN01,Canonical_None,vinnimal,26,1,0,1,1657,204,B1,7,canonical
CN01,Canonical_None,spearoddus,22,1,0,1,1240,205,B1,7,none
CN01,Canonical_None,ruddow,4,1,0,1,1627,206,B1,7,canonical
CN01,Canonical_None,bliddus,3,1,0,1,1731,207,B1,7,none
CN01,Canonical_None,bunnow,14,4,1,1,1212,208,B1,7,none
CN01,Canonical_None,trounny,13,4,1,1,1939,209,B1,7,none
CN01,Canonical_None,suspinnus,30,4,1,1,1912,210,B1,7,canonical
CN01,Canonical_None,senno,10,4,0,0,1229,211,B1,7,canonical
CN01,Canonical_None,cluddee,2,4,1,1,1038,212,B1,7,none
CN01,Canonical_None,smounnus,12,4,1,1,1388,213,B1,7,canonical
CN01,Canonical_None,spennogy,27,1,0,1,1870,214,B1,7,none
CN01,Canonical_None,vouddy,6,4,1,1,1476,215,B1,7,none
CN01,Canonical_None,byddo,0,4,0,0,2638,216,B1,7,canonical
CN01,Canonical_None,veddetus,19,1,0,1,1481,217,B1,7,none
CN01,Canonical_None,cynnergus,25,1,1,0,2061,218,B1,7,none
CN01,Canonical_None,treddemus,18,4,0,0,2608,219,B1,7,canonical
CN01,Canonical_None,glunner,9,1,0,0,1645,220,B1,7,none
CN01,Canonical_None,lucrunny,31,4,1,1,1829,221,B1,7,none
CN01,Canonical_None,troddy,1,4,0,0,1959,222,B1,7,canonical
CN01,Canonical_None,prounner,11,4,1,1,1729,223,B1,7,none
CN01,Canonical_None,byddo,0,-1,1,0,-1,224,B2,8,canonical
CN01,Canonical_None,troddy,1,4,0,0,1040,225,B2,8,canonical
CN01,Canonical_None,senno,10,1,1,0,1217,226,B2,8,canonical
CN01,Canonical_None,bliddus,3,1,0,0,874,227,B2,8,none
CN01,Canonical_None,vouddy,6,1,0,1,946,228,B2,8,none
CN01,Canonical_None,gleanny,15,4,1,1,1114,229,B2,8,canonical
CN01,Canonical_None,ruddow,4,1,0,1,1543,230,B2,8,canonical
CN01,Canonical_None,fluddow,5,4,1,1,1365,231,B2,8,none
CN01,Canonical_None,glunner,9,4,1,1,1354,232,B2,8,none
CN01,Canonical_None,suspinnus,30,4,1,1,1522,233,B2,8,canonical
CN01,Canonical_None,bunnow,14,1,0,1,968,234,B2,8,none
CN01,Canonical_None,prounner,11,4,1,1,1092,235,B2,8,none
CN01,Canonical_None,sleddow,7,4,1,1,1576,236,B2,8,canonical
CN01,Canonical_None,smounnus,12,1,0,1,1469,237,B2,8,canonical
CN01,Canonical_None,spennogy,27,4,1,1,968,238,B2,8,none
CN01,Canonical_None,piddery,17,4,1,1,1029,239,B2,8,canonical
CN01,Canonical_None,vinnimal,26,1,0,1,1542,240,B2,8,canonical
CN01,Canonical_None,lucrunny,31,4,1,1,1210,241,B2,8,none
CN01,Canonical_None,sounnerby,24,4,1,1,1488,242,B2,8,canonical
CN01,Canonical_None,sceaneddy,23,1,0,0,1436,243,B2,8,canonical
CN01,Canonical_None,trenner,8,4,1,1,1697,244,B2,8,canonical
CN01,Canonical_None,cynnergus,25,4,1,1,1206,245,B2,8,none
CN01,Canonical_None,treddemus,18,4,0,0,2087,246,B2,8,canonical
CN01,Canonical_None,pribeddy,20,4,1,1,1304,247,B2,8,none
CN01,Canonical_None,veddetus,19,1,0,1,1185,248,B2,8,none
CN01,Canonical_None,trounny,13,1,0,1,1881,249,B2,8,none
CN01,Canonical_None,credenner,29,4,1,1,2138,250,B2,8,none
CN01,Canonical_None,cluddee,2,1,0,1,1859,251,B2,8,none
CN01,Canonical_None,slyddenee,16,1,0,1,1797,252,B2,8,none
CN01,Canonical_None,spearoddus,22,4,1,1,1857,253,B2,8,none
CN01,Canonical_None,bredenno,28,1,0,1,2098,254,B2,8,canonical
CN01,Canonical_None,trecoddus,21,4,1,1,1438,255,B2,8,canonical
CN01,Canonical_None,vinnimal,26,4,1,1,1623,256,B2,9,canonical
CN01,Canonical_None,treddemus,18,4,1,1,1248,257,B2,9,canonical
CN01,Canonical_None,ruddow,4,4,1,1,1120,258,B2,9,canonical
CN01,Canonical_None,spennogy,27,1,0,1,1349,259,B2,9,none
CN01,Canonical_None,cluddee,2,4,1,1,838,260,B2,9,none
CN01,Canonical_None,byddo,0,1,1,0,2034,261,B2,9,canonical
CN01,Canonical_None,fluddow,5,4,1,1,1189,262,B2,9,none
CN01,Canonical_None,sleddow,7,4,1,1,1235,263,B2,9,canonical
CN01,Canonical_None,piddery,17,1,0,1,1002,264,B2,9,canonical
CN01,Canonical_None,sounnerby,24,4,1,1,2243,265,B2,9,canonical
CN01,Canonical_None,bredenno,28,4,1,1,2461,266,B2,9,canonical
CN01,Canonical_None,lucrunny,31,1,0,1,1533,267,B2,9,none
CN01,Canonical_None,smounnus,12,1,0,0,2417,268,B2,9,canonical
CN01,Canonical_None,spearoddus,22,1,0,1,1192,269,B2,9,none
CN01,Canonical_None,vouddy,6,1,0,1,1542,270,B2,9,none
CN01,Canonical_None,veddetus,19,1,0,1,1522,271,B2,9,none
CN01,Canonical_None,troddy,1,1,1,0,2682,272,B2,9,canonical
CN01,Canonical_None,trecoddus,21,1,0,1,2005,273,B2,9,canonical
CN01,Canonical_None,gleanny,15,1,0,1,2666,274,B2,9,canonical
CN01,Canonical_None,senno,10,4,0,0,1655,275,B2,9,canonical
CN01,Canonical_None,bunnow,14,4,1,1,1248,276,B2,9,none
CN01,Canonical_None,suspinnus,30,4,1,1,2966,277,B2,9,canonical
CN01,Canonical_None,cynnergus,25,-1,0,0,-1,278,B2,9,none
CN01,Canonical_None,trounny,13,1,0,1,1540,279,B2,9,none
CN01,Canonical_None,glunner,9,1,0,1,1398,280,B2,9,none
CN01,Canonical_None,credenner,29,1,0,1,1763,281,B2,9,none
CN01,Canonical_None,pribeddy,20,4,1,1,1726,282,B2,9,none
CN01,Canonical_None,bliddus,3,1,1,0,1434,283,B2,9,none
CN01,Canonical_None,prounner,11,4,1,1,1189,284,B2,9,none
CN01,Canonical_None,trenner,8,4,1,1,1900,285,B2,9,canonical
CN01,Canonical_None,slyddenee,16,1,0,1,1206,286,B2,9,none
CN01,Canonical_None,sceaneddy,23,1,0,1,2909,287,B2,9,canonical
CN01,Canonical_None,byddo,0,4,0,0,2500,288,B2,10,canonical
CN01,Canonical_None,ruddow,4,1,0,1,1421,289,B2,10,canonical
CN01,Canonical_None,trenner,8,1,0,1,2621,290,B2,10,canonical
CN01,Canonical_None,cluddee,2,1,0,1,1470,291,B2,10,none
CN01,Canonical_None,spennogy,27,4,1,1,1308,292,B2,10,none
CN01,Canonical_None,trecoddus,21,1,0,1,1429,293,B2,10,canonical
CN01,Canonical_None,pribeddy,20,1,0,1,1894,294,B2,10,none
CN01,Canonical_None,sounnerby,24,-1,0,0,-1,295,B2,10,canonical
CN01,Canonical_None,smounnus,12,1,0,1,1902,296,B2,10,canonical
CN01,Canonical_None,suspinnus,30,1,1,0,1175,297,B2,10,canonical
CN01,Canonical_None,trounny,13,1,0,0,650,298,B2,10,none
CN01,Canonical_None,vouddy,6,4,1,1,802,299,B2,10,none
CN01,Canonical_None,bredenno,28,1,1,0,1681,300,B2,10,canonical
CN01,Canonical_None,lucrunny,31,4,1,1,1406,301,B2,10,none
CN01,Canonical_None,bliddus,3,4,1,1,1090,302,B2,10,none
CN01,Canonical_None,veddetus,19,4,1,1,973,303,B2,10,none
CN01,Canonical_None,gleanny,15,4,1,1,1330,304,B2,10,canonical
CN01,Canonical_None,cynnergus,25,1,0,1,2601,305,B2,10,none
CN01,Canonical_None,credenner,29,1,1,0,2795,306,B2,10,none
CN01,Canonical_None,spearoddus,22,1,0,1,624,307,B2,10,none
CN01,Canonical_None,vinnimal,26,1,0,1,1854,308,B2,10,canonical
CN01,Canonical_None,prounner,11,4,1,1,624,309,B2,10,none
CN01,Canonical_None,slyddenee,16,4,1,1,1165,310,B2,10,none
CN01,Canonical_None,piddery,17,4,1,1,1413,311,B2,10,canonical
CN01,Canonical_None,sceaneddy,23,1,0,1,2018,312,B2,10,canonical
CN01,Canonical_None,troddy,1,-1,1,0,-1,313,B2,10,canonical
CN01,Canonical_None,sleddow,7,4,1,1,1499,314,B2,10,canonical
CN01,Canonical_None,senno,10,4,0,0,1197,315,B2,10,canonical
CN01,Canonical_None,fluddow,5,1,0,1,934,316,B2,10,none
CN01,Canonical_None,bunnow,14,4,1,1,1082,317,B2,10,none
CN01,Canonical_None,glunner,9,1,0,1,1406,318,B2,10,none
CN01,Canonical_None,treddemus,18,4,0,0,1912,319,B2,10,canonical
CN01,Canonical_None,bunnow,14,1,0,1,918,320,B2,11,none
CN01,Canonical_None,vouddy,6,4,1,1,1351,321,B2,11,none
CN01,Canonical_None,veddetus,19,4,1,1,1049,322,B2,11,none
CN01,Canonical_None,sleddow,7,4,1,1,2098,323,B2,11,canonical
CN01,Canonical_None,trenner,8,1,1,0,2518,324,B2,11,canonical
CN01,Canonical_None,sceaneddy,23,4,0,0,1683,325,B2,11,canonical
CN01,Canonical_None,bliddus,3,1,1,0,1499,326,B2,11,none
CN01,Canonical_None,fluddow,5,1,0,1,1234,327,B2,11,none
CN01,Canonical_None,ruddow,4,4,1,1,1122,328,B2,11,canonical
CN01,Canonical_None,smounnus,12,4,0,0,2188,329,B2,11,canonical
CN01,Canonical_None,trecoddus,21,4,1,1,1640,330,B2,11,canonical
CN01,Canonical_None,slyddenee,16,1,0,1,1074,331,B2,11,none
CN01,Canonical_None,glunner,9,4,1,1,1606,332,B2,11,none
CN01,Canonical_None,senno,10,1,0,1,1851,333,B2,11,canonical
CN01,Canonical_None,piddery,17,1,1,0,1474,334,B2,11,canonical
CN01,Canonical_None,spearoddus,22,1,0,1,1326,335,B2,11,none
CN01,Canonical_None,prounner,11,1,0,1,1474,336,B2,11,none
CN01,Canonical_None,spennogy,27,4,1,1,1446,337,B2,11,none
CN01,Canonical_None,gleanny,15,4,0,0,2400,338,B2,11,canonical
CN01,Canonical_None,bredenno,28,1,1,0,2127,339,B2,11,canonical
CN01,Canonical_None,troddy,1,4,0,0,1540,340,B2,11,canonical
CN01,Canonical_None,pribeddy,20,4,0,0,2929,341,B2,11,none
CN01,Canonical_None,credenner,29,1,1,0,1872,342,B2,11,none
CN01,Canonical_None,vinnimal,26,4,1,1,1526,343,B2,11,canonical
CN01,Canonical_None,sounnerby,24,1,0,1,2079,344,B2,11,canonical
CN01,Canonical_None,byddo,0,4,1,1,2434,345,B2,11,canonical
CN01,Canonical_None,trounny,13,4,1,1,1394,346,B2,11,none
CN01,Canonical_None,treddemus,18,4,0,0,2144,347,B2,11,canonical
CN01,Canonical_None,cluddee,2,1,0,1,1533,348,B2,11,none
CN01,Canonical_None,lucrunny,31,4,1,1,1638,349,B2,11,none
CN01,Canonical_None,suspinnus,30,1,0,1,2356,350,B2,11,canonical
CN01,Canonical_None,cynnergus,25,1,0,1,1136,351,B2,11,none
CN01,Canonical_None,smounnus,12,1,0,1,2630,352,B2,12,canonical
CN01,Canonical_None,troddy,1,1,0,0,1428,353,B2,12,canonical
CN01,Canonical_None,bredenno,28,4,1,1,1945,354,B2,12,canonical
CN01,Canonical_None,slyddenee,16,1,0,1,641,355,B2,12,none
CN01,Canonical_None,cynnergus,25,1,0,1,851,356,B2,12,none
CN01,Canonical_None,spearoddus,22,4,1,1,531,357,B2,12,none
CN01,Canonical_None,fluddow,5,4,1,1,966,358,B2,12,none
CN01,Canonical_None,pribeddy,20,1,0,1,1005,359,B2,12,none
CN01,Canonical_None,ruddow,4,1,0,1,1248,360,B2,12,canonical
CN01,Canonical_None,trenner,8,1,0,1,1825,361,B2,12,canonical
CN01,Canonical_None,prounner,11,1,0,0,1118,362,B2,12,none
CN01,Canonical_None,vouddy,6,1,0,1,678,363,B2,12,none
CN01,Canonical_None,credenner,29,4,0,0,1757,364,B2,12,none
CN01,Canonical_None,sceaneddy,23,1,1,0,1986,365,B2,12,canonical
CN01,Canonical_None,glunner,9,4,1,1,959,366,B2,12,none
CN01,Canonical_None,trounny,13,1,0,1,1103,367,B2,12,none
CN01,Canonical_None,bliddus,3,1,0,1,2077,368,B2,12,none
CN01,Canonical_None,spennogy,27,1,0,1,1093,369,B2,12,none
CN01,Canonical_None,lucrunny,31,4,1,1,1619,370,B2,12,none
CN01,Canonical_None,veddetus,19,1,0,1,1133,371,B2,12,none
CN01,Canonical_None,cluddee,2,4,1,1,1133,372,B2,12,none
CN01,Canonical_None,senno,10,4,1,1,2069,373,B2,12,canonical
CN01,Canonical_None,vinnimal,26,4,1,1,1879,374,B2,12,canonical
CN01,Canonical_None,byddo,0,1,1,0,1730,375,B2,12,canonical
CN01,Canonical_None,sounnerby,24,4,1,1,2523,376,B2,12,canonical
CN01,Canonical_None,bunnow,14,1,0,1,763,377,B2,12,none
CN01,Canonical_None,suspinnus,30,-1,0,0,-1,378,B2,12,canonical
CN01,Canonical_None,gleanny,15,4,1,1,1255,379,B2,12,canonical
CN01,Canonical_None,treddemus,18,4,0,0,2174,380,B2,12,canonical
CN01,Canonical_None,piddery,17,4,0,0,1477,381,B2,12,canonical
CN01,Canonical_None,trecoddus,21,4,1,1,1888,382,B2,12,canonical
CN01,Canonical_None,sleddow,7,1,0,1,827,383,B2,12,canonical
CN01,Canonical_None,sceaneddy,23,4,0,0,2763,384,B2,13,canonical
CN01,Canonical_None,gleanny,15,-1,1,0,-1,385,B2,13,canonical
CN01,Canonical_None,credenner,29,1,0,0,1744,386,B2,13,none
CN01,Canonical_None,suspinnus,30,-1,0,0,-1,387,B2,13,canonical
CN01,Canonical_None,senno,10,4,0,0,1283,388,B2,13,canonical
CN01,Canonical_None,trounny,13,4,1,1,963,389,B2,13,none
CN01,Canonical_None,pribeddy,20,1,0,0,740,390,B2,13,none
CN01,Canonical_None,byddo,0,1,1,0,1670,391,B2,13,canonical
CN01,Canonical_None,slyddenee,16,1,0,1,984,392,B2,13,none
CN01,Canonical_None,prounner,11,4,1,1,652,393,B2,13,none
CN01,Canonical_None,vinnimal,26,1,0,1,1566,394,B2,13,canonical
CN01,Canonical_None,bunnow,14,1,0,1,768,395,B2,13,none
CN01,Canonical_None,cynnergus,25,4,1,1,1359,396,B2,13,none
CN01,Canonical_None,vouddy,6,1,0,1,874,397,B2,13,none
CN01,Canonical_None,smounnus,12,-1,0,0,-1,398,B2,13,canonical
CN01,Canonical_None,glunner,9,4,1,1,1068,399,B2,13,none
CN01,Canonical_None,sleddow,7,4,0,0,1673,400,B2,13,canonical
CN01,Canonical_None,trecoddus,21,1,1,0,2052,401,B2,13,canonical
CN01,Canonical_None,piddery,17,1,1,0,1001,402,B2,13,canonical
CN01,Canonical_None,cluddee,2,4,1,1,680,403,B2,13,none
CN01,Canonical_None,bliddus,3,4,1,1,2345,404,B2,13,none
CN01,Canonical_None,lucrunny,31,4,1,1,857,405,B2,13,none
CN01,Canonical_None,veddetus,19,4,1,1,1342,406,B2,13,none
CN01,Canonical_None,ruddow,4,4,1,1,2438,407,B2,13,canonical
CN01,Canonical_None,bredenno,28,1,1,0,1570,408,B2,13,canonical
CN01,Canonical_None,spearoddus,22,4,1,1,1174,409,B2,13,none
CN01,Canonical_None,treddemus,18,1,1,0,874,410,B2,13,canonical
CN01,Canonical_None,spennogy,27,4,1,0,1842,411,B2,13,none
CN01,Canonical_None,sounnerby,24,1,1,0,1582,412,B2,13,canonical
CN01,Canonical_None,trenner,8,1,1,0,1547,413,B2,13,canonical
CN01,Canonical_None,fluddow,5,4,1,1,1251,414,B2,13,none
CN01,Canonical_None,troddy,1,1,1,0,1566,415,B2,13,canonical
CN01,Canonical_None,bredenno,28,4,1,1,2179,416,B2,14,canonical
CN01,Canonical_None,piddery,17,1,1,0,1271,417,B2,14,canonical
CN01,Canonical_None,pribeddy,20,4,1,1,1511,418,B2,14,none
CN01,Canonical_None,slyddenee,16,1,0,1,1194,419,B2,14,none
CN01,Canonical_None,gleanny,15,1,1,0,1760,420,B2,14,canonical
CN01,Canonical_None,trecoddus,21,1,0,1,1835,421,B2,14,canonical
CN01,Canonical_None,fluddow,5,1,0,1,1142,422,B2,14,none
CN01,Canonical_None,credenner,29,1,1,0,2631,423,B2,14,none
CN01,Canonical_None,sounnerby,24,1,0,1,2030,424,B2,14,canonical
CN01,Canonical_None,sceaneddy,23,4,0,0,2687,425,B2,14,canonical
CN01,Canonical_None,sleddow,7,1,1,0,1966,426,B2,14,canonical
CN01,Canonical_None,trenner,8,4,0,0,1598,427,B2,14,canonical
CN01,Canonical_None,vinnimal,26,1,0,1,1573,428,B2,14,canonical
CN01,Canonical_None,spearoddus,22,1,0,1,1214,429,B2,14,none
CN01,Canonical_None,ruddow,4,4,0,0,1459,430,B2,14,canonical
CN01,Canonical_None,bliddus,3,4,0,0,1623,431,B2,14,none
CN01,Canonical_None,bunnow,14,4,1,1,1267,432,B2,14,none
CN01,Canonical_None,trounny,13,4,1,1,1123,433,B2,14,none
CN01,Canonical_None,suspinnus,30,1,1,0,1942,434,B2,14,canonical
CN01,Canonical_None,senno,10,1,0,1,1449,435,B2,14,canonical
CN01,Canonical_None,cluddee,2,4,1,1,929,436,B2,14,none
CN01,Canonical_None,smounnus,12,1,1,0,1785,437,B2,14,canonical
CN01,Canonical_None,spennogy,27,1,0,1,1423,438,B2,14,none
CN01,Canonical_None,vouddy,6,4,1,1,1429,439,B2,14,none
CN01,Canonical_None,byddo,0,4,0,0,1345,440,B2,14,canonical
CN01,Canonical_None,veddetus,19,1,0,0,954,441,B2,14,none
CN01,Canonical_None,cynnergus,25,4,1,1,1413,442,B2,14,none
CN01,Canonical_None,treddemus,18,4,0,0,1365,443,B2,14,canonical
CN01,Canonical_None,glunner,9,1,0,1,1415,444,B2,14,none
CN01,Canonical_None,lucrunny,31,4,1,1,1334,445,B2,14,none
CN01,Canonical_None,troddy,1,4,0,0,1881,446,B2,14,canonical
CN01,Canonical_None,prounner,11,4,1,1,1301,447,B2,14,none
CN01,Canonical_None,byddo,0,-1,1,0,-1,448,B3,15,canonical
CN01,Canonical_None,troddy,1,4,0,0,1431,449,B3,15,canonical
CN01,Canonical_None,senno,10,1,1,0,1660,450,B3,15,canonical
CN01,Canonical_None,bliddus,3,4,0,0,1377,451,B3,15,none
CN01,Canonical_None,vouddy,6,1,0,1,924,452,B3,15,none
CN01,Canonical_None,gleanny,15,1,1,0,1818,453,B3,15,canonical
CN01,Canonical_None,ruddow,4,4,0,0,1103,454,B3,15,canonical
CN01,Canonical_None,fluddow,5,4,1,1,792,455,B3,15,none
CN01,Canonical_None,glunner,9,4,1,1,784,456,B3,15,none
CN01,Canonical_None,suspinnus,30,1,1,0,1998,457,B3,15,canonical
CN01,Canonical_None,bunnow,14,1,0,1,821,458,B3,15,none
CN01,Canonical_None,prounner,11,4,1,1,833,459,B3,15,none
CN01,Canonical_None,sleddow,7,1,1,0,1167,460,B3,15,canonical
CN01,Canonical_None,smounnus,12,1,0,1,1548,461,B3,15,canonical
CN01,Canonical_None,spennogy,27,4,1,1,789,462,B3,15,none
CN01,Canonical_None,piddery,17,1,1,0,554,463,B3,15,canonical
CN01,Canonical_None,vinnimal,26,1,0,1,960,464,B3,15,canonical
CN01,Canonical_None,lucrunny,31,4,1,1,954,465,B3,15,none
CN01,Canonical_None,sounnerby,24,4,1,1,1516,466,B3,15,canonical
CN01,Canonical_None,sceaneddy,23,-1,0,0,-1,467,B3,15,canonical
CN01,Canonical_None,trenner,8,1,1,0,1753,468,B3,15,canonical
CN01,Canonical_None,cynnergus,25,4,1,1,1136,469,B3,15,none
CN01,Canonical_None,treddemus,18,1,0,1,1226,470,B3,15,canonical
CN01,Canonical_None,pribeddy,20,4,1,1,948,471,B3,15,none
CN01,Canonical_None,veddetus,19,1,0,1,1258,472,B3,15,none
CN01,Canonical_None,trounny,13,1,0,1,1212,473,B3,15,none
CN01,Canonical_None,credenner,29,1,1,0,2048,474,B3,15,none
CN01,Canonical_None,cluddee,2,1,0,1,704,475,B3,15,none
CN01,Canonical_None,slyddenee,16,1,0,1,1452,476,B3,15,none
CN01,Canonical_None,spearoddus,22,4,1,1,968,477,B3,15,none
CN01,Canonical_None,bredenno,28,4,0,0,2104,478,B3,15,canonical
CN01,Canonical_None,trecoddus,21,1,1,0,1468,479,B3,15,canonical
CN01,Canonical_None,vinnimal,26,1,1,0,1196,480,B3,16,canonical
CN01,Canonical_None,treddemus,18,1,1,0,1578,481,B3,16,canonical
CN01,Canonical_None,ruddow,4,1,1,0,937,482,B3,16,canonical
CN01,Canonical_None,spennogy,27,1,0,1,899,483,B3,16,none
CN01,Canonical_None,cluddee,2,4,1,1,723,484,B3,16,none
CN01,Canonical_None,byddo,0,1,1,0,982,485,B3,16,canonical
CN01,Canonical_None,fluddow,5,4,1,1,699,486,B3,16,none
CN01,Canonical_None,sleddow,7,1,1,0,2186,487,B3,16,canonical
CN01,Canonical_None,piddery,17,4,0,0,588,488,B3,16,canonical
CN01,Canonical_None,sounnerby,24,4,1,1,1900,489,B3,16,canonical
CN01,Canonical_None,bredenno,28,4,1,1,2430,490,B3,16,canonical
CN01,Canonical_None,lucrunny,31,1,0,1,1655,491,B3,16,none
CN01,Canonical_None,smounnus,12,4,0,0,2230,492,B3,16,canonical
CN01,Canonical_None,spearoddus,22,1,0,0,1272,493,B3,16,none
CN01,Canonical_None,vouddy,6,1,0,1,1273,494,B3,16,none
CN01,Canonical_None,veddetus,19,1,0,1,1372,495,B3,16,none
CN01,Canonical_None,troddy,1,4,1,1,1815,496,B3,16,canonical
CN01,Canonical_None,trecoddus,21,4,0,0,2145,497,B3,16,canonical
CN01,Canonical_None,gleanny,15,4,0,0,1890,498,B3,16,canonical
CN01,Canonical_None,senno,10,1,0,1,1198,499,B3,16,canonical
CN01,Canonical_None,bunnow,14,4,1,1,811,500,B3,16,none
CN01,Canonical_None,suspinnus,30,1,1,0,1832,501,B3,16,canonical
CN01,Canonical_None,cynnergus,25,4,0,0,2290,502,B3,16,none
CN01,Canonical_None,trounny,13,1,0,1,1352,503,B3,16,none
CN01,Canonical_None,glunner,9,1,0,1,1397,504,B3,16,none
CN01,Canonical_None,credenner,29,1,0,1,1677,505,B3,16,none
CN01,Canonical_None,pribeddy,20,4,1,1,1255,506,B3,16,none
CN01,Canonical_None,bliddus,3,4,1,1,1324,507,B3,16,none
CN01,Canonical_None,prounner,11,4,1,1,945,508,B3,16,none
CN01,Canonical_None,trenner,8,1,1,0,1952,509,B3,16,canonical
CN01,Canonical_None,slyddenee,16,1,0,1,1076,510,B3,16,none
CN01,Canonical_None,sceaneddy,23,4,0,0,1540,511,B3,16,canonical
CN01,Canonical_None,byddo,0,4,0,0,1274,512,B3,17,canonical
CN01,Canonical_None,ruddow,4,1,0,1,1390,513,B3,17,canonical
CN01,Canonical_None,trenner,8,4,0,0,1612,514,B3,17,canonical
CN01,Canonical_None,cluddee,2,1,0,1,1104,515,B3,17,none
CN01,Canonical_None,spennogy,27,4,1,1,1256,516,B3,17,none
CN01,Canonical_None,trecoddus,21,4,0,0,2301,517,B3,17,canonical
CN01,Canonical_None,pribeddy,20,1,0,1,1349,518,B3,17,none
CN01,Canonical_None,sounnerby,24,4,0,0,1469,519,B3,17,canonical
CN01,Canonical_None,smounnus,12,4,0,0,1629,520,B3,17,canonical
CN01,Canonical_None,suspinnus,30,1,1,0,1796,521,B3,17,canonical
CN01,Canonical_None,trounny,13,1,0,1,1043,522,B3,17,none
CN01,Canonical_None,vouddy,6,4,1,1,900,523,B3,17,none
CN01,Canonical_None,bredenno,28,1,1,0,2242,524,B3,17,canonical
CN01,Canonical_None,lucrunny,31,4,1,1,1094,525,B3,17,none
CN01,Canonical_None,bliddus,3,4,1,1,1158,526,B3,17,none
CN01,Canonical_None,veddetus,19,4,1,1,1146,527,B3,17,none
CN01,Canonical_None,gleanny,15,4,1,1,1702,528,B3,17,canonical
CN01,Canonical_None,cynnergus,25,1,0,1,1003,529,B3,17,none
CN01,Canonical_None,credenner,29,4,1,1,932,530,B3,17,none
CN01,Canonical_None,spearoddus,22,1,0,1,855,531,B3,17,none
CN01,Canonical_None,vinnimal,26,1,0,1,1378,532,B3,17,canonical
CN01,Canonical_None,prounner,11,4,1,1,503,533,B3,17,none
CN01,Canonical_None,slyddenee,16,4,1,1,514,534,B3,17,none
CN01,Canonical_None,piddery,17,1,1,0,572,535,B3,17,canonical
CN01,Canonical_None,sceaneddy,23,4,0,0,1103,536,B3,17,canonical
CN01,Canonical_None,troddy,1,1,1,0,1817,537,B3,17,canonical
CN01,Canonical_None,sleddow,7,1,1,0,1458,538,B3,17,canonical
CN01,Canonical_None,senno,10,1,0,1,1311,539,B3,17,canonical
CN01,Canonical_None,fluddow,5,1,0,1,761,540,B3,17,none
CN01,Canonical_None,bunnow,14,4,1,1,934,541,B3,17,none
CN01,Canonical_None,glunner,9,1,0,0,1105,542,B3,17,none
CN01,Canonical_None,treddemus,18,4,0,0,2094,543,B3,17,canonical
CN01,Canonical_None,bunnow,14,1,0,1,764,544,B3,18,none
CN01,Canonical_None,vouddy,6,4,1,1,901,545,B3,18,none
CN01,Canonical_None,veddetus,19,4,1,1,1004,546,B3,18,none
CN01,Canonical_None,sleddow,7,1,1,0,1109,547,B3,18,canonical
CN01,Canonical_None,trenner,8,1,1,0,1564,548,B3,18,canonical
CN01,Canonical_None,sceaneddy,23,4,0,0,1136,549,B3,18,canonical
CN01,Canonical_None,bliddus,3,4,1,1,1292,550,B3,18,none
CN01,Canonical_None,fluddow,5,1,0,1,736,551,B3,18,none
CN01,Canonical_None,ruddow,4,1,1,0,1395,552,B3,18,canonical
CN01,Canonical_None,smounnus,12,1,0,1,1121,553,B3,18,canonical
CN01,Canonical_None,trecoddus,21,1,1,0,772,554,B3,18,canonical
CN01,Canonical_None,slyddenee,16,1,0,1,714,555,B3,18,none
CN01,Canonical_None,glunner,9,4,1,1,770,556,B3,18,none
CN01,Canonical_None,senno,10,1,0,1,1597,557,B3,18,canonical
CN01,Canonical_None,piddery,17,1,1,0,1016,558,B3,18,canonical
CN01,Canonical_None,spearoddus,22,1,0,1,1289,559,B3,18,none
CN01,Canonical_None,prounner,11,1,0,1,772,560,B3,18,none
CN01,Canonical_None,spennogy,27,4,1,1,1533,561,B3,18,none
CN01,Canonical_None,gleanny,15,4,0,0,1631,562,B3,18,canonical
CN01,Canonical_None,bredenno,28,1,1,0,2550,563,B3,18,canonical
CN01,Canonical_None,troddy,1,4,0,0,2090,564,B3,18,canonical
CN01,Canonical_None,pribeddy,20,1,0,1,2063,565,B3,18,none
CN01,Canonical_None,credenner,29,4,1,1,1762,566,B3,18,none
CN01,Canonical_None,vinnimal,26,4,1,1,1191,567,B3,18,canonical
CN01,Canonical_None,sounnerby,24,4,0,0,1978,568,B3,18,canonical
CN01,Canonical_None,byddo,0,4,1,1,2247,569,B3,18,canonical
CN01,Canonical_None,trounny,13,4,1,1,880,570,B3,18,none
CN01,Canonical_None,treddemus,18,4,0,0,1999,571,B3,18,canonical
CN01,Canonical_None,cluddee,2,1,0,1,750,572,B3,18,none
CN01,Canonical_None,lucrunny,31,4,1,1,827,573,B3,18,none
CN01,Canonical_None,suspinnus,30,1,0,1,2613,574,B3,18,canonical
CN01,Canonical_None,cynnergus,25,1,0,1,1689,575,B3,18,none
CN01,Canonical_None,smounnus,12,4,0,0,1409,576,B3,19,canonical
CN01,Canonical_None,troddy,1,4,0,0,1259,577,B3,19,canonical
CN01,Canonical_None,bredenno,28,4,1,1,1045,578,B3,19,canonical
CN01,Canonical_None,slyddenee,16,1,0,1,919,579,B3,19,none
CN01,Canonical_None,cynnergus,25,4,0,0,2326,580,B3,19,none
CN01,Canonical_None,spearoddus,22,4,1,1,799,581,B3,19,none
CN01,Canonical_None,fluddow,5,4,1,1,1098,582,B3,19,none
CN01,Canonical_None,pribeddy,20,1,0,1,862,583,B3,19,none
CN01,Canonical_None,ruddow,4,4,0,0,998,584,B3,19,canonical
CN01,Canonical_None,trenner,8,4,0,0,1107,585,B3,19,canonical
CN01,Canonical_None,prounner,11,1,0,1,964,586,B3,19,none
CN01,Canonical_None,vouddy,6,1,0,1,1588,587,B3,19,none
CN01,Canonical_None,credenner,29,1,0,0,2129,588,B3,19,none
CN01,Canonical_None,sceaneddy,23,1,1,0,2232,589,B3,19,canonical
CN01,Canonical_None,glunner,9,4,1,1,1368,590,B3,19,none
CN01,Canonical_None,trounny,13,1,0,1,1284,591,B3,19,none
CN01,Canonical_None,bliddus,3,4,0,0,1938,592,B3,19,none
CN01,Canonical_None,spennogy,27,1,0,0,1149,593,B3,19,none
CN01,Canonical_None,lucrunny,31,4,1,1,716,594,B3,19,none
CN01,Canonical_None,veddetus,19,1,0,1,846,595,B3,19,none
CN01,Canonical_None,cluddee,2,4,1,1,1194,596,B3,19,none
CN01,Canonical_None,senno,10,1,1,0,1734,597,B3,19,canonical
CN01,Canonical_None,vinnimal,26,1,1,0,1154,598,B3,19,canonical
CN01,Canonical_None,byddo,0,1,1,0,1182,599,B3,19,canonical
CN01,Canonical_None,sounnerby,24,4,1,1,1894,600,B3,19,canonical
CN01,Canonical_None,bunnow,14,1,0,1,745,601,B3,19,none
CN01,Canonical_None,suspinnus,30,4,0,0,1183,602,B3,19,canonical
CN01,Canonical_None,gleanny,15,1,1,0,950,603,B3,19,canonical
CN01,Canonical_None,treddemus,18,4,0,0,1414,604,B3,19,canonical
CN01,Canonical_None,piddery,17,4,0,0,759,605,B3,19,canonical
CN01,Canonical_None,trecoddus,21,1,1,0,1426,606,B3,19,canonical
CN01,Canonical_None,sleddow,7,4,0,0,2000,607,B3,19,canonical
CN01,Canonical_None,sceaneddy,23,1,0,1,1922,608,B3,20,canonical
CN01,Canonical_None,gleanny,15,1,1,0,977,609,B3,20,canonical
CN01,Canonical_None,credenner,29,1,0,1,904,610,B3,20,none
CN01,Canonical_None,suspinnus,30,4,0,0,1877,611,B3,20,canonical
CN01,Canonical_None,senno,10,4,0,0,1117,612,B3,20,canonical
CN01,Canonical_None,trounny,13,4,1,1,790,613,B3,20,none
CN01,Canonical_None,pribeddy,20,1,0,1,1075,614,B3,20,none
CN01,Canonical_None,byddo,0,1,1,0,1406,615,B3,20,canonical
CN01,Canonical_None,slyddenee,16,1,0,1,840,616,B3,20,none
CN01,Canonical_None,prounner,11,4,1,1,1308,617,B3,20,none
CN01,Canonical_None,vinnimal,26,4,0,0,1379,618,B3,20,canonical
CN01,Canonical_None,bunnow,14,1,0,1,965,619,B3,20,none
CN01,Canonical_None,cynnergus,25,4,1,1,1052,620,B3,20,none
CN01,Canonical_None,vouddy,6,1,0,1,1070,621,B3,20,none
CN01,Canonical_None,smounnus,12,1,0,1,1217,622,B3,20,canonical
CN01,Canonical_None,glunner,9,4,1,1,1082,623,B3,20,none
CN01,Canonical_None,sleddow,7,4,0,0,2482,624,B3,20,canonical
CN01,Canonical_None,trecoddus,21,1,1,0,2081,625,B3,20,canonical
CN01,Canonical_None,piddery,17,1,1,0,856,626,B3,20,canonical
CN01,Canonical_None,cluddee,2,4,1,1,1025,627,B3,20,none
CN01,Canonical_None,bliddus,3,4,1,1,1059,628,B3,20,none
CN01,Canonical_None,lucrunny,31,4,1,1,1526,629,B3,20,none
CN01,Canonical_None,veddetus,19,4,1,1,1212,630,B3,20,none
CN01,Canonical_None,ruddow,4,1,1,0,1143,631,B3,20,canonical
CN01,Canonical_None,bredenno,28,1,1,0,1228,632,B3,20,canonical
CN01,Canonical_None,spearoddus,22,4,1,1,1318,633,B3,20,none
CN01,Canonical_None,treddemus,18,1,1,0,1287,634,B3,20,canonical
CN01,Canonical_None,spennogy,27,4,1,0,1324,635,B3,20,none
CN01,Canonical_None,sounnerby,24,1,1,0,1512,636,B3,20,canonical
CN01,Canonical_None,trenner,8,1,1,0,1027,637,B3,20,canonical
CN01,Canonical_None,fluddow,5,1,1,0,992,638,B3,20,none
CN01,Canonical_None,troddy,1,1,1,0,1336,639,B3,20,canonical
CN02,Canonical_None,byddo,0,-1,1,0,-1,0,B1,1,canonical
CN02,Canonical_None,troddy,1,4,0,0,529,1,B1,1,canonical
CN02,Canonical_None,senno,10,1,1,0,431,2,B1,1,canonical
CN02,Canonical_None,bliddus,3,4,0,0,1537,3,B1,1,none
CN02,Canonical_None,vouddy,6,1,0,1,637,4,B1,1,none
CN02,Canonical_None,gleanny,15,4,1,1,513,5,B1,1,canonical
CN02,Canonical_None,ruddow,4,4,0,0,638,6,B1,1,canonical
CN02,Canonical_None,fluddow,5,1,1,0,607,7,B1,1,none
CN02,Canonical_None,glunner,9,4,1,1,553,8,B1,1,none
CN02,Canonical_None,suspinnus,30,4,1,1,803,9,B1,1,canonical
CN02,Canonical_None,bunnow,14,1,0,1,662,10,B1,1,none
CN02,Canonical_None,prounner,11,4,1,1,566,11,B1,1,none
CN02,Canonical_None,sleddow,7,1,1,0,524,12,B1,1,canonical
CN02,Canonical_None,smounnus,12,4,0,0,22,13,B1,1,canonical
CN02,Canonical_None,spennogy,27,1,1,0,522,14,B1,1,none
CN02,Canonical_None,piddery,17,4,1,1,454,15,B1,1,canonical
CN02,Canonical_None,vinnimal,26,1,0,1,341,16,B1,1,canonical
CN02,Canonical_None,lucrunny,31,4,1,1,392,17,B1,1,none
CN02,Canonical_None,sounnerby,24,4,1,1,639,18,B1,1,canonical
CN02,Canonical_None,sceaneddy,23,4,0,0,1084,19,B1,1,canonical
CN02,Canonical_None,trenner,8,4,1,1,463,20,B1,1,canonical
CN02,Canonical_None,cynnergus,25,4,1,1,827,21,B1,1,none
CN02,Canonical_None,treddemus,18,4,0,0,306,22,B1,1,canonical
CN02,Canonical_None,pribeddy,20,4,1,1,968,23,B1,1,none
CN02,Canonical_None,veddetus,19,4,0,0,781,24,B1,1,none
CN02,Canonical_None,trounny,13,1,0,1,625,25,B1,1,none
CN02,Canonical_None,credenner,29,1,1,0,1014,26,B1,1,none
CN02,Canonical_None,cluddee,2,4,0,0,745,27,B1,1,none
CN02,Canonical_None,slyddenee,16,1,0,1,689,28,B1,1,none
CN02,Canonical_None,spearoddus,22,4,1,1,869,29,B1,1,none
CN02,Canonical_None,bredenno,28,4,0,0,695,30,B1,1,canonical
CN02,Canonical_None,trecoddus,21,1,1,0,710,31,B1,1,canonical
CN02,Canonical_None,vinnimal,26,1,1,0,688,32,B1,2,canonical
CN02,Canonical_None,treddemus,18,4,1,1,476,33,B1,2,canonical
CN02,Canonical_None,ruddow,4,4,1,1,536,34,B1,2,canonical
CN02,Canonical_None,spennogy,27,1,0,1,771,35,B1,2,none
CN02,Canonical_None,cluddee,2,4,1,1,405,36,B1,2,none
CN02,Canonical_None,byddo,0,4,1,1,843,37,B1,2,canonical
CN02,Canonical_None,fluddow,5,4,1,1,1298,38,B1,2,none
CN02,Canonical_None,sleddow,7,1,1,0,659,39,B1,2,canonical
CN02,Canonical_None,piddery,17,4,0,0,283,40,B1,2,canonical
CN02,Canonical_None,sounnerby,24,4,1,1,788,41,B1,2,canonical
CN02,Canonical_None,bredenno,28,4,1,1,257,42,B1,2,canonical
CN02,Canonical_None,lucrunny,31,4,0,0,823,43,B1,2,none
CN02,Canonical_None,smounnus,12,4,0,0,840,44,B1,2,canonical
CN02,Canonical_None,spearoddus,22,4,0,0,1031,45,B1,2,none
CN02,Canonical_None,vouddy,6,4,0,0,795,46,B1,2,none
CN02,Canonical_None,veddetus,19,4,0,0,780,47,B1,2,none
CN02,Canonical_None,troddy,1,4,1,1,655,48,B1,2,canonical
CN02,Canonical_None,trecoddus,21,4,0,0,594,49,B1,2,canonical
CN02,Canonical_None,gleanny,15,4,0,0,592,50,B1,2,canonical
CN02,Canonical_None,senno,10,4,0,0,643,51,B1,2,canonical
CN02,Canonical_None,bunnow,14,4,1,1,532,52,B1,2,none
CN02,Canonical_None,suspinnus,30,4,1,1,907,53,B1,2,canonical
CN02,Canonical_None,cynnergus,25,1,0,1,1073,54,B1,2,none
CN02,Canonical_None,trounny,13,1,0,1,745,55,B1,2,none
CN02,Canonical_None,glunner,9,4,0,0,535,56,B1,2,none
CN02,Canonical_None,credenner,29,4,0,0,287,57,B1,2,none
CN02,Canonical_None,pribeddy,20,4,1,1,202,58,B1,2,none
CN02,Canonical_None,bliddus,3,1,1,0,1664,59,B1,2,none
CN02,Canonical_None,prounner,11,4,1,1,383,60,B1,2,none
CN02,Canonical_None,trenner,8,4,1,1,565,61,B1,2,canonical
CN02,Canonical_None,slyddenee,16,1,0,1,611,62,B1,2,none
CN02,Canonical_None,sceaneddy,23,4,0,0,690,63,B1,2,canonical
CN02,Canonical_None,byddo,0,4,0,0,2434,64,B1,3,canonical
CN02,Canonical_None,ruddow,4,1,0,1,804,65,B1,3,canonical
CN02,Canonical_None,trenner,8,4,0,0,1073,66,B1,3,canonical
CN02,Canonical_None,cluddee,2,1,0,1,813,67,B1,3,none
CN02,Canonical_None,spennogy,27,4,1,1,831,68,B1,3,none
CN02,Canonical_None,trecoddus,21,4,0,0,557,69,B1,3,canonical
CN02,Canonical_None,pribeddy,20,4,0,0,898,70,B1,3,none
CN02,Canonical_None,sounnerby,24,4,0,0,851,71,B1,3,canonical
CN02,Canonical_None,smounnus,12,4,0,0,851,72,B1,3,canonical
CN02,Canonical_None,suspinnus,30,4,1,1,1077,73,B1,3,canonical
CN02,Canonical_None,trounny,13,4,0,0,431,74,B1,3,none
CN02,Canonical_None,vouddy,6,4,1,1,104,75,B1,3,none
CN02,Canonical_None,bredenno,28,4,1,1,901,76,B1,3,canonical
CN02,Canonical_None,lucrunny,31,4,1,1,517,77,B1,3,none
CN02,Canonical_None,bliddus,3,4,1,1,1052,78,B1,3,none
CN02,Canonical_None,veddetus,19,1,1,0,762,79,B1,3,none
CN02,Canonical_None,gleanny,15,4,1,1,601,80,B1,3,canonical
CN02,Canonical_None,cynnergus,25,4,0,0,544,81,B1,3,none
CN02,Canonical_None,credenner,29,4,1,1,160,82,B1,3,none
CN02,Canonical_None,spearoddus,22,4,0,0,76,83,B1,3,none
CN02,Canonical_None,vinnimal,26,1,0,1,1019,84,B1,3,canonical
CN02,Canonical_None,prounner,11,4,1,1,501,85,B1,3,none
CN02,Canonical_None,slyddenee,16,4,1,1,714,86,B1,3,none
CN02,Canonical_None,piddery,17,4,1,1,407,87,B1,3,canonical
CN02,Canonical_None,sceaneddy,23,4,0,0,871,88,B1,3,canonical
CN02,Canonical_None,troddy,1,4,1,1,259,89,B1,3,canonical
CN02,Canonical_None,sleddow,7,4,1,1,1341,90,B1,3,canonical
CN02,Canonical_None,senno,10,4,0,0,1002,91,B1,3,canonical
CN02,Canonical_None,fluddow,5,4,0,0,76,92,B1,3,none
CN02,Canonical_None,bunnow,14,4,1,1,10,93,B1,3,none
CN02,Canonical_None,glunner,9,4,0,0,199,94,B1,3,none
CN02,Canonical_None,treddemus,18,4,0,0,34,95,B1,3,canonical
CN02,Canonical_None,bunnow,14,1,0,1,38,96,B1,4,none
CN02,Canonical_None,vouddy,6,4,1,1,5,97,B1,4,none
CN02,Canonical_None,veddetus,19,4,1,1,116,98,B1,4,none
CN02,Canonical_None,sleddow,7,4,1,1,136,99,B1,4,canonical
CN02,Canonical_None,trenner,8,4,1,1,64,100,B1,4,canonical
CN02,Canonical_None,sceaneddy,23,1,0,1,437,101,B1,4,canonical
CN02,Canonical_None,bliddus,3,4,1,1,129,102,B1,4,none
CN02,Canonical_None,fluddow,5,1,0,1,1298,103,B1,4,none
CN02,Canonical_None,ruddow,4,1,1,0,590,104,B1,4,canonical
CN02,Canonical_None,smounnus,12,4,0,0,1124,105,B1,4,canonical
CN02,Canonical_None,trecoddus,21,1,1,0,1776,106,B1,4,canonical
CN02,Canonical_None,slyddenee,16,4,0,0,2095,107,B1,4,none
CN02,Canonical_None,glunner,9,4,1,1,24,108,B1,4,none
CN02,Canonical_None,senno,10,4,0,0,9,109,B1,4,canonical
CN02,Canonical_None,piddery,17,4,1,1,728,110,B1,4,canonical
CN02,Canonical_None,spearoddus,22,1,0,1,408,111,B1,4,none
CN02,Canonical_None,prounner,11,1,0,1,848,112,B1,4,none
CN02,Canonical_None,spennogy,27,4,1,1,790,113,B1,4,none
CN02,Canonical_None,gleanny,15,4,0,0,15,114,B1,4,canonical
CN02,Canonical_None,bredenno,28,1,1,0,791,115,B1,4,canonical
CN02,Canonical_None,troddy,1,4,0,0,1072,116,B1,4,canonical
CN02,Canonical_None,pribeddy,20,4,0,0,1462,117,B1,4,none
CN02,Canonical_None,credenner,29,4,1,1,1067,118,B1,4,none
CN02,Canonical_None,vinnimal,26,4,1,1,150,119,B1,4,canonical
CN02,Canonical_None,sounnerby,24,4,0,0,219,120,B1,4,canonical
CN02,Canonical_None,byddo,0,4,1,1,344,121,B1,4,canonical
CN02,Canonical_None,trounny,13,4,1,1,70,122,B1,4,none
CN02,Canonical_None,treddemus,18,4,0,0,139,123,B1,4,canonical
CN02,Canonical_None,cluddee,2,4,0,0,40,124,B1,4,none
CN02,Canonical_None,lucrunny,31,4,1,1,121,125,B1,4,none
CN02,Canonical_None,suspinnus,30,4,0,0,924,126,B1,4,canonical
CN02,Canonical_None,cynnergus,25,4,0,0,181,127,B1,4,none
CN02,Canonical_None,smounnus,12,4,0,0,74,128,B1,5,canonical
CN02,Canonical_None,troddy,1,4,0,0,102,129,B1,5,canonical
CN02,Canonical_None,bredenno,28,4,1,1,459,130,B1,5,canonical
CN02,Canonical_None,slyddenee,16,4,0,0,531,131,B1,5,none
CN02,Canonical_None,cynnergus,25,4,0,0,480,132,B1,5,none
CN02,Canonical_None,spearoddus,22,1,1,0,892,133,B1,5,none
CN02,Canonical_None,fluddow,5,4,1,1,405,134,B1,5,none
CN02,Canonical_None,pribeddy,20,1,0,1,452,135,B1,5,none
CN02,Canonical_None,ruddow,4,4,0,0,76,136,B1,5,canonical
CN02,Canonical_None,trenner,8,1,0,1,138,137,B1,5,canonical
CN02,Canonical_None,prounner,11,4,0,0,27,138,B1,5,none
CN02,Canonical_None,vouddy,6,4,0,0,163,139,B1,5,none
CN02,Canonical_None,credenner,29,4,0,0,1352,140,B1,5,none
CN02,Canonical_None,sceaneddy,23,4,1,1,372,141,B1,5,canonical
CN02,Canonical_None,glunner,9,4,1,1,410,142,B1,5,none
CN02,Canonical_None,trounny,13,4,0,0,495,143,B1,5,none
CN02,Canonical_None,bliddus,3,1,0,1,818,144,B1,5,none
CN02,Canonical_None,spennogy,27,4,0,0,515,145,B1,5,none
CN02,Canonical_None,lucrunny,31,4,1,1,622,146,B1,5,none
CN02,Canonical_None,veddetus,19,4,0,0,294,147,B1,5,none
CN02,Canonical_None,cluddee,2,4,1,1,983,148,B1,5,none
CN02,Canonical_None,senno,10,4,1,1,1255,149,B1,5,canonical
CN02,Canonical_None,vinnimal,26,4,1,1,1795,150,B1,5,canonical
CN02,Canonical_None,byddo,0,4,1,1,1416,151,B1,5,canonical
CN02,Canonical_None,sounnerby,24,4,1,1,2106,152,B1,5,canonical
CN02,Canonical_None,bunnow,14,4,0,0,1088,153,B1,5,none
CN02,Canonical_None,suspinnus,30,4,0,0,1349,154,B1,5,canonical
CN02,Canonical_None,gleanny,15,1,1,0,2827,155,B1,5,canonical
CN02,Canonical_None,treddemus,18,-1,0,0,-1,156,B1,5,canonical
CN02,Canonical_None,piddery,17,1,0,1,845,157,B1,5,canonical
CN02,Canonical_None,trecoddus,21,1,1,0,714,158,B1,5,canonical
CN02,Canonical_None,sleddow,7,1,0,1,407,159,B1,5,canonical
CN02,Canonical_None,sceaneddy,23,1,0,1,768,160,B1,6,canonical
CN02,Canonical_None,gleanny,15,1,1,0,449,161,B1,6,canonical
CN02,Canonical_None,credenner,29,1,0,1,500,162,B1,6,none
CN02,Canonical_None,suspinnus,30,1,0,1,790,163,B1,6,canonical
CN02,Canonical_None,senno,10,1,0,1,510,164,B1,6,canonical
CN02,Canonical_None,trounny,13,4,1,1,234,165,B1,6,none
CN02,Canonical_None,pribeddy,20,4,0,0,365,166,B1,6,none
CN02,Canonical_None,byddo,0,4,1,1,839,167,B1,6,canonical
CN02,Canonical_None,slyddenee,16,4,0,0,966,168,B1,6,none
CN02,Canonical_None,prounner,11,4,1,1,302,169,B1,6,none
CN02,Canonical_None,vinnimal,26,4,0,0,26,170,B1,6,canonical
CN02,Canonical_None,bunnow,14,4,0,0,678,171,B1,6,none
CN02,Canonical_None,cynnergus,25,4,1,1,290,172,B1,6,none
CN02,Canonical_None,vouddy,6,4,0,0,1680,173,B1,6,none
CN02,Canonical_None,smounnus,12,4,0,0,1727,174,B1,6,canonical
CN02,Canonical_None,glunner,9,4,1,1,2282,175,B1,6,none
CN02,Canonical_None,sleddow,7,4,0,0,177,176,B1,6,canonical
CN02,Canonical_None,trecoddus,21,4,1,1,147,177,B1,6,canonical
CN02,Canonical_None,piddery,17,4,1,1,7,178,B1,6,canonical
CN02,Canonical_None,cluddee,2,1,1,0,263,179,B1,6,none
CN02,Canonical_None,bliddus,3,4,1,1,404,180,B1,6,none
CN02,Canonical_None,lucrunny,31,1,1,0,427,181,B1,6,none
CN02,Canonical_None,veddetus,19,4,1,1,356,182,B1,6,none
CN02,Canonical_None,ruddow,4,1,1,0,672,183,B1,6,canonical
CN02,Canonical_None,bredenno,28,-1,1,0,-1,184,B1,6,canonical
CN02,Canonical_None,spearoddus,22,4,1,1,1101,185,B1,6,none
CN02,Canonical_None,treddemus,18,4,1,1,362,186,B1,6,canonical
CN02,Canonical_None,spennogy,27,4,1,1,1011,187,B1,6,none
CN02,Canonical_None,sounnerby,24,4,1,1,1025,188,B1,6,canonical
CN02,Canonical_None,trenner,8,4,1,1,438,189,B1,6,canonical
CN02,Canonical_None,fluddow,5,4,1,1,526,190,B1,6,none
CN02,Canonical_None,troddy,1,1,1,0,578,191,B1,6,canonical
CN02,Canonical_None,bredenno,28,4,1,1,413,192,B1,7,canonical
CN02,Canonical_None,piddery,17,1,1,0,633,193,B1,7,canonical
CN02,Canonical_None,pribeddy,20,4,1,1,122,194,B1,7,none
CN02,Canonical_None,slyddenee,16,1,0,1,171,195,B1,7,none
CN02,Canonical_None,gleanny,15,4,1,1,341,196,B1,7,canonical
CN02,Canonical_None,trecoddus,21,1,0,1,805,197,B1,7,canonical
CN02,Canonical_None,fluddow,5,4,0,0,348,198,B1,7,none
CN02,Canonical_None,credenner,29,4,1,1,518,199,B1,7,none
CN02,Canonical_None,sounnerby,24,4,0,0,1036,200,B1,7,canonical
CN02,Canonical_None,sceaneddy,23,4,0,0,1245,201,B1,7,canonical
CN02,Canonical_None,sleddow,7,4,1,1,119,202,B1,7,canonical
CN02,Canonical_None,trenner,8,4,0,0,563,203,B1,7,canonical
CN02,Canonical_None,vinnimal,26,4,0,0,404,204,B1,7,canonical
CN02,Canonical_None,spearoddus,22,4,0,0,289,205,B1,7,none
CN02,Canonical_None,ruddow,4,4,0,0,1903,206,B1,7,canonical
CN02,Canonical_None,bliddus,3,-1,0,0,-1,207,B1,7,none
CN02,Canonical_None,bunnow,14,1,1,0,442,208,B1,7,none
CN02,Canonical_None,trounny,13,4,1,1,328,209,B1,7,none
CN02,Canonical_None,suspinnus,30,4,1,1,60,210,B1,7,canonical
CN02,Canonical_None,senno,10,4,0,0,181,211,B1,7,canonical
CN02,Canonical_None,cluddee,2,4,1,1,71,212,B1,7,none
CN02,Canonical_None,smounnus,12,4,1,1,578,213,B1,7,canonical
CN02,Canonical_None,spennogy,27,4,0,0,2,214,B1,7,none
CN02,Canonical_None,vouddy,6,1,1,0,1159,215,B1,7,none
CN02,Canonical_None,byddo,0,4,0,0,303,216,B1,7,canonical
CN02,Canonical_None,veddetus,19,1,0,1,531,217,B1,7,none
CN02,Canonical_None,cynnergus,25,1,1,0,185,218,B1,7,none
CN02,Canonical_None,treddemus,18,1,0,1,30,219,B1,7,canonical
CN02,Canonical_None,glunner,9,4,0,0,25,220,B1,7,none
CN02,Canonical_None,lucrunny,31,4,1,1,427,221,B1,7,none
CN02,Canonical_None,troddy,1,4,0,0,246,222,B1,7,canonical
CN02,Canonical_None,prounner,11,4,1,1,442,223,B1,7,none
CN02,Canonical_None,byddo,0,1,1,0,1885,224,B2,8,canonical
CN02,Canonical_None,troddy,1,4,0,0,575,225,B2,8,canonical
CN02,Canonical_None,senno,10,4,1,1,923,226,B2,8,canonical
CN02,Canonical_None,bliddus,3,4,0,0,309,227,B2,8,none
CN02,Canonical_None,vouddy,6,4,0,0,686,228,B2,8,none
CN02,Canonical_None,gleanny,15,4,1,1,930,229,B2,8,canonical
CN02,Canonical_None,ruddow,4,4,0,0,574,230,B2,8,canonical
CN02,Canonical_None,fluddow,5,4,1,1,693,231,B2,8,none
CN02,Canonical_None,glunner,9,4,1,1,180,232,B2,8,none
CN02,Canonical_None,suspinnus,30,4,1,1,2461,233,B2,8,canonical
CN02,Canonical_None,bunnow,14,4,0,0,258,234,B2,8,none
CN02,Canonical_None,prounner,11,4,1,1,375,235,B2,8,none
CN02,Canonical_None,sleddow,7,4,1,1,1918,236,B2,8,canonical
CN02,Canonical_None,smounnus,12,4,0,0,721,237,B2,8,canonical
CN02,Canonical_None,spennogy,27,4,1,1,1581,238,B2,8,none
CN02,Canonical_None,piddery,17,4,1,1,2782,239,B2,8,canonical
CN02,Canonical_None,vinnimal,26,4,0,0,319,240,B2,8,canonical
CN02,Canonical_None,lucrunny,31,4,1,1,1063,241,B2,8,none
CN02,Canonical_None,sounnerby,24,4,1,1,955,242,B2,8,canonical
CN02,Canonical_None,sceaneddy,23,4,0,0,1866,243,B2,8,canonical
CN02,Canonical_None,trenner,8,4,1,1,281,244,B2,8,canonical
CN02,Canonical_None,cynnergus,25,4,1,1,652,245,B2,8,none
CN02,Canonical_None,treddemus,18,4,0,0,1518,246,B2,8,canonical
CN02,Canonical_None,pribeddy,20,4,1,1,49,247,B2,8,none
CN02,Canonical_None,veddetus,19,4,0,0,409,248,B2,8,none
CN02,Canonical_None,trounny,13,4,0,0,1564,249,B2,8,none
CN02,Canonical_None,credenner,29,-1,1,0,-1,250,B2,8,none
CN02,Canonical_None,cluddee,2,4,0,0,275,251,B2,8,none
CN02,Canonical_None,slyddenee,16,4,0,0,2278,252,B2,8,none
CN02,Canonical_None,spearoddus,22,4,1,1,963,253,B2,8,none
CN02,Canonical_None,bredenno,28,4,0,0,2908,254,B2,8,canonical
CN02,Canonical_None,trecoddus,21,4,1,1,1518,255,B2,8,canonical
CN02,Canonical_None,vinnimal,26,4,1,1,252,256,B2,9,canonical
CN02,Canonical_None,treddemus,18,4,1,0,2274,257,B2,9,canonical
CN02,Canonical_None,ruddow,4,4,1,1,358,258,B2,9,canonical
CN02,Canonical_None,spennogy,27,4,0,0,662,259,B2,9,none
CN02,Canonical_None,cluddee,2,4,1,1,456,260,B2,9,none
CN02,Canonical_None,byddo,0,4,1,0,1637,261,B2,9,canonical
CN02,Canonical_None,fluddow,5,4,1,1,420,262,B2,9,none
CN02,Canonical_None,sleddow,7,-1,1,0,-1,263,B2,9,canonical
CN02,Canonical_None,piddery,17,4,0,0,480,264,B2,9,canonical
CN02,Canonical_None,sounnerby,24,4,1,1,1106,265,B2,9,canonical
CN02,Canonical_None,bredenno,28,4,1,1,165,266,B2,9,canonical
CN02,Canonical_None,lucrunny,31,4,0,0,48,267,B2,9,none
CN02,Canonical_None,smounnus,12,4,0,0,1373,268,B2,9,canonical
CN02,Canonical_None,spearoddus,22,4,0,0,664,269,B2,9,none
CN02,Canonical_None,vouddy,6,4,0,0,2106,270,B2,9,none
CN02,Canonical_None,veddetus,19,-1,0,0,-1,271,B2,9,none
CN02,Canonical_None,troddy,1,4,1,1,1693,272,B2,9,canonical
CN02,Canonical_None,trecoddus,21,4,0,0,669,273,B2,9,canonical
CN02,Canonical_None,gleanny,15,4,0,0,831,274,B2,9,canonical
CN02,Canonical_None,senno,10,4,0,0,42,275,B2,9,canonical
CN02,Canonical_None,bunnow,14,4,1,1,214,276,B2,9,none
CN02,Canonical_None,suspinnus,30,4,1,1,2246,277,B2,9,canonical
CN02,Canonical_None,cynnergus,25,4,0,0,2808,278,B2,9,none
CN02,Canonical_None,trounny,13,4,0,0,2123,279,B2,9,none
CN02,Canonical_None,glunner,9,4,0,0,1645,280,B2,9,none
CN02,Canonical_None,credenner,29,-1,0,0,-1,281,B2,9,none
CN02,Canonical_None,pribeddy,20,-1,1,0,-1,282,B2,9,none
CN02,Canonical_None,bliddus,3,4,1,1,1458,283,B2,9,none
CN02,Canonical_None,prounner,11,4,1,1,2254,284,B2,9,none
CN02,Canonical_None,trenner,8,4,1,1,180,285,B2,9,canonical
CN02,Canonical_None,slyddenee,16,4,0,0,2422,286,B2,9,none
CN02,Canonical_None,sceaneddy,23,4,0,0,2959,287,B2,9,canonical
CN02,Canonical_None,byddo,0,1,0,0,947,288,B2,10,canonical
CN02,Canonical_None,ruddow,4,-1,0,0,-1,289,B2,10,canonical
CN02,Canonical_None,trenner,8,-1,0,0,-1,290,B2,10,canonical
CN02,Canonical_None,cluddee,2,1,0,1,494,291,B2,10,none
CN02,Canonical_None,spennogy,27,1,1,0,813,292,B2,10,none
CN02,Canonical_None,trecoddus,21,1,0,1,1323,293,B2,10,canonical
CN02,Canonical_None,pribeddy,20,1,0,1,18,294,B2,10,none
CN02,Canonical_None,sounnerby,24,1,0,1,121,295,B2,10,canonical
CN02,Canonical_None,smounnus,12,1,0,1,610,296,B2,10,canonical
CN02,Canonical_None,suspinnus,30,1,1,0,130,297,B2,10,canonical
CN02,Canonical_None,trounny,13,1,0,1,1932,298,B2,10,none
CN02,Canonical_None,vouddy,6,1,1,0,378,299,B2,10,none
CN02,Canonical_None,bredenno,28,1,1,0,1211,300,B2,10,canonical
CN02,Canonical_None,lucrunny,31,1,1,0,219,301,B2,10,none
CN02,Canonical_None,bliddus,3,1,1,0,225,302,B2,10,none
CN02,Canonical_None,veddetus,19,-1,1,0,-1,303,B2,10,none
CN02,Canonical_None,gleanny,15,1,1,0,387,304,B2,10,canonical
CN02,Canonical_None,cynnergus,25,1,0,1,1316,305,B2,10,none
CN02,Canonical_None,credenner,29,1,1,0,1918,306,B2,10,none
CN02,Canonical_None,spearoddus,22,1,0,1,251,307,B2,10,none
CN02,Canonical_None,vinnimal,26,1,0,1,469,308,B2,10,canonical
CN02,Canonical_None,prounner,11,1,1,0,2703,309,B2,10,none
CN02,Canonical_None,slyddenee,16,1,1,0,516,310,B2,10,none
CN02,Canonical_None,piddery,17,1,1,0,1389,311,B2,10,canonical
CN02,Canonical_None,sceaneddy,23,1,0,1,550,312,B2,10,canonical
CN02,Canonical_None,troddy,1,1,1,0,1862,313,B2,10,canonical
CN02,Canonical_None,sleddow,7,1,1,0,64,314,B2,10,canonical
CN02,Canonical_None,senno,10,1,0,1,812,315,B2,10,canonical
CN02,Canonical_None,fluddow,5,1,0,1,638,316,B2,10,none
CN02,Canonical_None,bunnow,14,1,1,0,184,317,B2,10,none
CN02,Canonical_None,glunner,9,1,0,1,342,318,B2,10,none
CN02,Canonical_None,treddemus,18,4,0,0,1185,319,B2,10,canonical
CN02,Canonical_None,bunnow,14,4,0,0,2083,320,B2,11,none
CN02,Canonical_None,vouddy,6,4,1,1,7,321,B2,11,none
CN02,Canonical_None,veddetus,19,4,1,1,204,322,B2,11,none
CN02,Canonical_None,sleddow,7,4,1,1,6,323,B2,11,canonical
CN02,Canonical_None,trenner,8,4,1,1,1368,324,B2,11,canonical
CN02,Canonical_None,sceaneddy,23,4,0,0,1224,325,B2,11,canonical
CN02,Canonical_None,bliddus,3,4,1,1,1097,326,B2,11,none
CN02,Canonical_None,fluddow,5,4,0,0,490,327,B2,11,none
CN02,Canonical_None,ruddow,4,4,1,1,609,328,B2,11,canonical
CN02,Canonical_None,smounnus,12,4,0,0,66,329,B2,11,canonical
CN02,Canonical_None,trecoddus,21,4,1,1,42,330,B2,11,canonical
CN02,Canonical_None,slyddenee,16,4,0,0,6,331,B2,11,none
CN02,Canonical_None,glunner,9,4,1,1,48,332,B2,11,none
CN02,Canonical_None,senno,10,4,0,0,1195,333,B2,11,canonical
CN02,Canonical_None,piddery,17,4,1,1,47,334,B2,11,canonical
CN02,Canonical_None,spearoddus,22,4,0,0,512,335,B2,11,none
CN02,Canonical_None,prounner,11,4,0,0,44,336,B2,11,none
CN02,Canonical_None,spennogy,27,4,1,1,2902,337,B2,11,none
CN02,Canonical_None,gleanny,15,-1,0,0,-1,338,B2,11,canonical
CN02,Canonical_None,bredenno,28,1,1,0,18,339,B2,11,canonical
CN02,Canonical_None,troddy,1,1,0,1,214,340,B2,11,canonical
CN02,Canonical_None,pribeddy,20,1,0,1,209,341,B2,11,none
CN02,Canonical_None,credenner,29,1,1,0,307,342,B2,11,none
CN02,Canonical_None,vinnimal,26,4,1,1,605,343,B2,11,canonical
CN02,Canonical_None,sounnerby,24,4,0,0,287,344,B2,11,canonical
CN02,Canonical_None,byddo,0,4,1,1,721,345,B2,11,canonical
CN02,Canonical_None,trounny,13,4,1,1,12,346,B2,11,none
CN02,Canonical_None,treddemus,18,4,0,0,72,347,B2,11,canonical
CN02,Canonical_None,cluddee,2,4,0,0,1,348,B2,11,none
CN02,Canonical_None,lucrunny,31,4,1,1,1100,349,B2,11,none
CN02,Canonical_None,suspinnus,30,4,0,0,486,350,B2,11,canonical
CN02,Canonical_None,cynnergus,25,4,0,0,1401,351,B2,11,none
CN02,Canonical_None,smounnus,12,4,0,0,297,352,B2,12,canonical
CN02,Canonical_None,troddy,1,4,0,0,339,353,B2,12,canonical
CN02,Canonical_None,bredenno,28,4,1,1,331,354,B2,12,canonical
CN02,Canonical_None,slyddenee,16,4,0,0,94,355,B2,12,none
CN02,Canonical_None,cynnergus,25,4,0,0,921,356,B2,12,none
CN02,Canonical_None,spearoddus,22,4,1,1,371,357,B2,12,none
CN02,Canonical_None,fluddow,5,4,1,1,212,358,B2,12,none
CN02,Canonical_None,pribeddy,20,4,0,0,538,359,B2,12,none
CN02,Canonical_None,ruddow,4,4,0,0,1237,360,B2,12,canonical
CN02,Canonical_None,trenner,8,4,0,0,428,361,B2,12,canonical
CN02,Canonical_None,prounner,11,4,0,0,513,362,B2,12,none
CN02,Canonical_None,vouddy,6,4,0,0,27,363,B2,12,none
CN02,Canonical_None,credenner,29,-1,0,0,-1,364,B2,12,none
CN02,Canonical_None,sceaneddy,23,4,1,1,242,365,B2,12,canonical
CN02,Canonical_None,glunner,9,1,1,0,83,366,B2,12,none
CN02,Canonical_None,trounny,13,1,0,1,462,367,B2,12,none
CN02,Canonical_None,bliddus,3,1,0,1,423,368,B2,12,none
CN02,Canonical_None,spennogy,27,4,0,0,279,369,B2,12,none
CN02,Canonical_None,lucrunny,31,4,1,1,903,370,B2,12,none
CN02,Canonical_None,veddetus,19,1,0,1,1711,371,B2,12,none
CN02,Canonical_None,cluddee,2,1,1,0,2768,372,B2,12,none
CN02,Canonical_None,senno,10,1,1,0,677,373,B2,12,canonical
CN02,Canonical_None,vinnimal,26,1,1,0,2465,374,B2,12,canonical
CN02,Canonical_None,byddo,0,1,1,0,1395,375,B2,12,canonical
CN02,Canonical_None,sounnerby,24,1,1,0,173,376,B2,12,canonical
CN02,Canonical_None,bunnow,14,1,0,0,1227,377,B2,12,none
CN02,Canonical_None,suspinnus,30,1,0,1,2082,378,B2,12,canonical
CN02,Canonical_None,gleanny,15,1,1,0,555,379,B2,12,canonical
CN02,Canonical_None,treddemus,18,1,0,1,588,380,B2,12,canonical
CN02,Canonical_None,piddery,17,1,0,0,1872,381,B2,12,canonical
CN02,Canonical_None,trecoddus,21,1,1,0,211,382,B2,12,canonical
CN02,Canonical_None,sleddow,7,-1,0,0,-1,383,B2,12,canonical
CN02,Canonical_None,sceaneddy,23,1,0,1,54,384,B2,13,canonical
CN02,Canonical_None,gleanny,15,4,1,1,104,385,B2,13,canonical
CN02,Canonical_None,credenner,29,4,0,0,335,386,B2,13,none
CN02,Canonical_None,suspinnus,30,4,0,0,1412,387,B2,13,canonical
CN02,Canonical_None,senno,10,4,0,0,27,388,B2,13,canonical
CN02,Canonical_None,trounny,13,4,1,1,37,389,B2,13,none
CN02,Canonical_None,pribeddy,20,4,0,0,894,390,B2,13,none
CN02,Canonical_None,byddo,0,4,1,1,34,391,B2,13,canonical
CN02,Canonical_None,slyddenee,16,4,0,0,793,392,B2,13,none
CN02,Canonical_None,prounner,11,4,1,1,30,393,B2,13,none
CN02,Canonical_None,vinnimal,26,4,0,0,38,394,B2,13,canonical
CN02,Canonical_None,bunnow,14,4,0,0,109,395,B2,13,none
CN02,Canonical_None,cynnergus,25,4,1,1,1408,396,B2,13,none
CN02,Canonical_None,vouddy,6,4,0,0,618,397,B2,13,none
CN02,Canonical_None,smounnus,12,4,0,0,112,398,B2,13,canonical
CN02,Canonical_None,glunner,9,4,1,1,164,399,B2,13,none
CN02,Canonical_None,sleddow,7,4,0,0,539,400,B2,13,canonical
CN02,Canonical_None,trecoddus,21,4,1,1,786,401,B2,13,canonical
CN02,Canonical_None,piddery,17,4,1,1,93,402,B2,13,canonical
CN02,Canonical_None,cluddee,2,4,1,1,259,403,B2,13,none
CN02,Canonical_None,bliddus,3,4,1,1,452,404,B2,13,none
CN02,Canonical_None,lucrunny,31,4,1,1,275,405,B2,13,none
CN02,Canonical_None,veddetus,19,4,1,1,1097,406,B2,13,none
CN02,Canonical_None,ruddow,4,4,1,1,409,407,B2,13,canonical
CN02,Canonical_None,bredenno,28,4,1,1,707,408,B2,13,canonical
CN02,Canonical_None,spearoddus,22,4,1,1,14,409,B2,13,none
CN02,Canonical_None,treddemus,18,4,1,1,1725,410,B2,13,canonical
CN02,Canonical_None,spennogy,27,4,1,1,1,411,B2,13,none
CN02,Canonical_None,sounnerby,24,4,1,1,1098,412,B2,13,canonical
CN02,Canonical_None,trenner,8,4,1,1,83,413,B2,13,canonical
CN02,Canonical_None,fluddow,5,4,1,1,1292,414,B2,13,none
CN02,Canonical_None,troddy,1,4,1,1,473,415,B2,13,canonical
CN02,Canonical_None,bredenno,28,4,1,1,372,416,B2,14,canonical
CN02,Canonical_None,piddery,17,4,1,1,139,417,B2,14,canonical
CN02,Canonical_None,pribeddy,20,4,1,1,284,418,B2,14,none
CN02,Canonical_None,slyddenee,16,4,0,0,79,419,B2,14,none
CN02,Canonical_None,gleanny,15,4,1,1,436,420,B2,14,canonical
CN02,Canonical_None,trecoddus,21,4,0,0,233,421,B2,14,canonical
CN02,Canonical_None,fluddow,5,4,0,0,110,422,B2,14,none
CN02,Canonical_None,credenner,29,4,1,1,333,423,B2,14,none
CN02,Canonical_None,sounnerby,24,4,0,0,956,424,B2,14,canonical
CN02,Canonical_None,sceaneddy,23,1,0,0,2150,425,B2,14,canonical
CN02,Canonical_None,sleddow,7,1,1,0,746,426,B2,14,canonical
CN02,Canonical_None,trenner,8,1,0,1,231,427,B2,14,canonical
CN02,Canonical_None,vinnimal,26,1,0,1,354,428,B2,14,canonical
CN02,Canonical_None,spearoddus,22,1,0,1,175,429,B2,14,none
CN02,Canonical_None,ruddow,4,1,0,1,429,430,B2,14,canonical
CN02,Canonical_None,bliddus,3,1,0,1,1041,431,B2,14,none
CN02,Canonical_None,bunnow,14,1,1,0,422,432,B2,14,none
CN02,Canonical_None,trounny,13,1,1,0,407,433,B2,14,none
CN02,Canonical_None,suspinnus,30,1,1,0,339,434,B2,14,canonical
CN02,Canonical_None,senno,10,1,0,0,619,435,B2,14,canonical
CN02,Canonical_None,cluddee,2,1,1,0,537,436,B2,14,none
CN02,Canonical_None,smounnus,12,1,1,0,781,437,B2,14,canonical
CN02,Canonical_None,spennogy,27,1,0,0,970,438,B2,14,none
CN02,Canonical_None,vouddy,6,1,1,0,674,439,B2,14,none
CN02,Canonical_None,byddo,0,1,0,1,769,440,B2,14,canonical
CN02,Canonical_None,veddetus,19,1,0,1,713,441,B2,14,none
CN02,Canonical_None,cynnergus,25,-1,1,0,-1,442,B2,14,none
CN02,Canonical_None,treddemus,18,1,0,1,672,443,B2,14,canonical
CN02,Canonical_None,glunner,9,1,0,1,577,444,B2,14,none
CN02,Canonical_None,lucrunny,31,1,1,0,573,445,B2,14,none
CN02,Canonical_None,troddy,1,1,0,1,627,446,B2,14,canonical
CN02,Canonical_None,prounner,11,1,1,0,466,447,B2,14,none
CN02,Canonical_None,byddo,0,-1,1,0,-1,448,B3,15,canonical
CN02,Canonical_None,troddy,1,4,0,0,436,449,B3,15,canonical
CN02,Canonical_None,senno,10,4,1,1,628,450,B3,15,canonical
CN02,Canonical_None,bliddus,3,4,0,0,328,451,B3,15,none
CN02,Canonical_None,vouddy,6,4,0,0,1042,452,B3,15,none
CN02,Canonical_None,gleanny,15,4,1,1,1214,453,B3,15,canonical
CN02,Canonical_None,ruddow,4,4,0,0,1215,454,B3,15,canonical
CN02,Canonical_None,fluddow,5,4,1,1,565,455,B3,15,none
CN02,Canonical_None,glunner,9,4,1,1,533,456,B3,15,none
CN02,Canonical_None,suspinnus,30,4,1,1,1222,457,B3,15,canonical
CN02,Canonical_None,bunnow,14,4,0,0,1035,458,B3,15,none
CN02,Canonical_None,prounner,11,-1,1,0,-1,459,B3,15,none
CN02,Canonical_None,sleddow,7,4,1,1,250,460,B3,15,canonical
CN02,Canonical_None,smounnus,12,4,0,0,569,461,B3,15,canonical
CN02,Canonical_None,spennogy,27,4,1,1,875,462,B3,15,none
CN02,Canonical_None,piddery,17,4,1,1,1621,463,B3,15,canonical
CN02,Canonical_None,vinnimal,26,4,0,0,209,464,B3,15,canonical
CN02,Canonical_None,lucrunny,31,4,1,1,784,465,B3,15,none
CN02,Canonical_None,sounnerby,24,4,1,1,1210,466,B3,15,canonical
CN02,Canonical_None,sceaneddy,23,4,0,0,783,467,B3,15,canonical
CN02,Canonical_None,trenner,8,4,1,1,567,468,B3,15,canonical
CN02,Canonical_None,cynnergus,25,4,1,1,2252,469,B3,15,none
CN02,Canonical_None,treddemus,18,4,0,0,1912,470,B3,15,canonical
CN02,Canonical_None,pribeddy,20,4,1,1,844,471,B3,15,none
CN02,Canonical_None,veddetus,19,4,0,0,589,472,B3,15,none
CN02,Canonical_None,trounny,13,4,0,0,415,473,B3,15,none
CN02,Canonical_None,credenner,29,4,1,1,1147,474,B3,15,none
CN02,Canonical_None,cluddee,2,4,0,0,254,475,B3,15,none
CN02,Canonical_None,slyddenee,16,4,0,0,2378,476,B3,15,none
CN02,Canonical_None,spearoddus,22,4,1,1,1865,477,B3,15,none
CN02,Canonical_None,bredenno,28,4,0,0,52,478,B3,15,canonical
CN02,Canonical_None,trecoddus,21,4,1,1,2173,479,B3,15,canonical
CN02,Canonical_None,vinnimal,26,1,1,0,156,480,B3,16,canonical
CN02,Canonical_None,treddemus,18,1,1,0,243,481,B3,16,canonical
CN02,Canonical_None,ruddow,4,1,1,0,2,482,B3,16,canonical
CN02,Canonical_None,spennogy,27,1,0,1,993,483,B3,16,none
CN02,Canonical_None,cluddee,2,1,1,0,811,484,B3,16,none
CN02,Canonical_None,byddo,0,1,1,0,557,485,B3,16,canonical
CN02,Canonical_None,fluddow,5,1,1,0,632,486,B3,16,none
CN02,Canonical_None,sleddow,7,1,1,0,619,487,B3,16,canonical
CN02,Canonical_None,piddery,17,1,0,1,530,488,B3,16,canonical
CN02,Canonical_None,sounnerby,24,1,1,0,1152,489,B3,16,canonical
CN02,Canonical_None,bredenno,28,1,1,0,1022,490,B3,16,canonical
CN02,Canonical_None,lucrunny,31,1,0,1,1007,491,B3,16,none
CN02,Canonical_None,smounnus,12,1,0,1,385,492,B3,16,canonical
CN02,Canonical_None,spearoddus,22,1,0,1,158,493,B3,16,none
CN02,Canonical_None,vouddy,6,1,0,1,758,494,B3,16,none
CN02,Canonical_None,veddetus,19,1,0,1,998,495,B3,16,none
CN02,Canonical_None,troddy,1,1,1,0,1669,496,B3,16,canonical
CN02,Canonical_None,trecoddus,21,1,0,1,317,497,B3,16,canonical
CN02,Canonical_None,gleanny,15,1,0,1,351,498,B3,16,canonical
CN02,Canonical_None,senno,10,1,0,1,494,499,B3,16,canonical
CN02,Canonical_None,bunnow,14,1,1,0,658,500,B3,16,none
CN02,Canonical_None,suspinnus,30,1,1,0,426,501,B3,16,canonical
CN02,Canonical_None,cynnergus,25,1,0,1,365,502,B3,16,none
CN02,Canonical_None,trounny,13,1,0,1,2145,503,B3,16,none
CN02,Canonical_None,glunner,9,1,0,1,945,504,B3,16,none
CN02,Canonical_None,credenner,29,1,0,1,2167,505,B3,16,none
CN02,Canonical_None,pribeddy,20,1,1,0,1024,506,B3,16,none
CN02,Canonical_None,bliddus,3,1,1,0,315,507,B3,16,none
CN02,Canonical_None,prounner,11,1,1,0,877,508,B3,16,none
CN02,Canonical_None,trenner,8,1,1,0,2149,509,B3,16,canonical
CN02,Canonical_None,slyddenee,16,1,0,1,1871,510,B3,16,none
CN02,Canonical_None,sceaneddy,23,1,0,1,2319,511,B3,16,canonical
CN02,Canonical_None,byddo,0,1,0,1,2379,512,B3,17,canonical
CN02,Canonical_None,ruddow,4,1,0,1,1533,513,B3,17,canonical
CN02,Canonical_None,trenner,8,1,0,1,229,514,B3,17,canonical
CN02,Canonical_None,cluddee,2,-1,0,0,-1,515,B3,17,none
CN02,Canonical_None,spennogy,27,1,1,0,766,516,B3,17,none
CN02,Canonical_None,trecoddus,21,1,0,1,566,517,B3,17,canonical
CN02,Canonical_None,pribeddy,20,1,0,1,668,518,B3,17,none
CN02,Canonical_None,sounnerby,24,1,0,1,2346,519,B3,17,canonical
CN02,Canonical_None,smounnus,12,-1,0,0,-1,520,B3,17,canonical
CN02,Canonical_None,suspinnus,30,1,1,0,65,521,B3,17,canonical
CN02,Canonical_None,trounny,13,1,0,1,1661,522,B3,17,none
CN02,Canonical_None,vouddy,6,1,1,0,844,523,B3,17,none
CN02,Canonical_None,bredenno,28,1,1,0,1003,524,B3,17,canonical
CN02,Canonical_None,lucrunny,31,1,1,0,1227,525,B3,17,none
CN02,Canonical_None,bliddus,3,1,1,0,564,526,B3,17,none
CN02,Canonical_None,veddetus,19,-1,1,0,-1,527,B3,17,none
CN02,Canonical_None,gleanny,15,1,1,0,1570,528,B3,17,canonical
CN02,Canonical_None,cynnergus,25,4,0,0,943,529,B3,17,none
CN02,Canonical_None,credenner,29,4,1,1,760,530,B3,17,none
CN02,Canonical_None,spearoddus,22,4,0,0,566,531,B3,17,none
CN02,Canonical_None,vinnimal,26,4,0,0,784,532,B3,17,canonical
CN02,Canonical_None,prounner,11,4,1,1,603,533,B3,17,none
CN02,Canonical_None,slyddenee,16,4,1,1,1600,534,B3,17,none
CN02,Canonical_None,piddery,17,4,1,1,99,535,B3,17,canonical
CN02,Canonical_None,sceaneddy,23,4,0,0,1575,536,B3,17,canonical
CN02,Canonical_None,troddy,1,-1,1,0,-1,537,B3,17,canonical
CN02,Canonical_None,sleddow,7,4,1,1,1459,538,B3,17,canonical
CN02,Canonical_None,senno,10,4,0,0,602,539,B3,17,canonical
CN02,Canonical_None,fluddow,5,4,0,0,673,540,B3,17,none
CN02,Canonical_None,bunnow,14,4,1,1,118,541,B3,17,none
CN02,Canonical_None,glunner,9,-1,0,0,-1,542,B3,17,none
CN02,Canonical_None,treddemus,18,4,0,0,2236,543,B3,17,canonical
CN02,Canonical_None,bunnow,14,4,0,0,731,544,B3,18,none
CN02,Canonical_None,vouddy,6,4,1,1,1843,545,B3,18,none
CN02,Canonical_None,veddetus,19,4,1,1,1050,546,B3,18,none
CN02,Canonical_None,sleddow,7,4,1,1,736,547,B3,18,canonical
CN02,Canonical_None,trenner,8,4,1,1,777,548,B3,18,canonical
CN02,Canonical_None,sceaneddy,23,4,0,0,2572,549,B3,18,canonical
CN02,Canonical_None,bliddus,3,4,1,1,1688,550,B3,18,none
CN02,Canonical_None,fluddow,5,-1,0,0,-1,551,B3,18,none
CN02,Canonical_None,ruddow,4,-1,1,0,-1,552,B3,18,canonical
CN02,Canonical_None,smounnus,12,4,0,0,394,553,B3,18,canonical
CN02,Canonical_None,trecoddus,21,4,1,1,766,554,B3,18,canonical
CN02,Canonical_None,slyddenee,16,4,0,0,858,555,B3,18,none
CN02,Canonical_None,glunner,9,4,1,1,976,556,B3,18,none
CN02,Canonical_None,senno,10,4,0,0,387,557,B3,18,canonical
CN02,Canonical_None,piddery,17,4,1,1,2535,558,B3,18,canonical
CN02,Canonical_None,spearoddus,22,4,0,0,2637,559,B3,18,none
CN02,Canonical_None,prounner,11,4,0,0,186,560,B3,18,none
CN02,Canonical_None,spennogy,27,4,1,1,12,561,B3,18,none
CN02,Canonical_None,gleanny,15,4,0,0,2854,562,B3,18,canonical
CN02,Canonical_None,bredenno,28,-1,1,0,-1,563,B3,18,canonical
CN02,Canonical_None,troddy,1,4,0,0,248,564,B3,18,canonical
CN02,Canonical_None,pribeddy,20,4,0,0,2454,565,B3,18,none
CN02,Canonical_None,credenner,29,4,1,1,873,566,B3,18,none
CN02,Canonical_None,vinnimal,26,4,1,1,555,567,B3,18,canonical
CN02,Canonical_None,sounnerby,24,4,0,0,1158,568,B3,18,canonical
CN02,Canonical_None,byddo,0,4,1,1,1183,569,B3,18,canonical
CN02,Canonical_None,trounny,13,4,1,1,836,570,B3,18,none
CN02,Canonical_None,treddemus,18,4,0,0,312,571,B3,18,canonical
CN02,Canonical_None,cluddee,2,4,0,0,1454,572,B3,18,none
CN02,Canonical_None,lucrunny,31,4,1,1,650,573,B3,18,none
CN02,Canonical_None,suspinnus,30,4,0,0,754,574,B3,18,canonical
CN02,Canonical_None,cynnergus,25,4,0,0,156,575,B3,18,none
CN02,Canonical_None,smounnus,12,4,0,0,1030,576,B3,19,canonical
CN02,Canonical_None,troddy,1,4,0,0,1055,577,B3,19,canonical
CN02,Canonical_None,bredenno,28,4,1,1,2886,578,B3,19,canonical
CN02,Canonical_None,slyddenee,16,4,0,0,2395,579,B3,19,none
CN02,Canonical_None,cynnergus,25,4,0,0,805,580,B3,19,none
CN02,Canonical_None,spearoddus,22,4,1,1,422,581,B3,19,none
CN02,Canonical_None,fluddow,5,4,1,1,1723,582,B3,19,none
CN02,Canonical_None,pribeddy,20,4,0,0,2541,583,B3,19,none
CN02,Canonical_None,ruddow,4,-1,0,0,-1,584,B3,19,canonical
CN02,Canonical_None,trenner,8,4,0,0,1833,585,B3,19,canonical
CN02,Canonical_None,prounner,11,4,0,0,462,586,B3,19,none
CN02,Canonical_None,vouddy,6,4,0,0,2891,587,B3,19,none
CN02,Canonical_None,credenner,29,4,0,0,2118,588,B3,19,none
CN02,Canonical_None,sceaneddy,23,4,1,1,29,589,B3,19,canonical
CN02,Canonical_None,glunner,9,4,1,1,681,590,B3,19,none
CN02,Canonical_None,trounny,13,4,0,0,500,591,B3,19,none
CN02,Canonical_None,bliddus,3,4,0,0,219,592,B3,19,none
CN02,Canonical_None,spennogy,27,4,0,0,1410,593,B3,19,none
CN02,Canonical_None,lucrunny,31,4,1,1,1200,594,B3,19,none
CN02,Canonical_None,veddetus,19,-1,0,0,-1,595,B3,19,none
CN02,Canonical_None,cluddee,2,4,1,1,818,596,B3,19,none
CN02,Canonical_None,senno,10,4,1,1,842,597,B3,19,canonical
CN02,Canonical_None,vinnimal,26,4,1,1,635,598,B3,19,canonical
CN02,Canonical_None,byddo,0,4,1,1,1891,599,B3,19,canonical
CN02,Canonical_None,sounnerby,24,4,1,1,874,600,B3,19,canonical
CN02,Canonical_None,bunnow,14,4,0,0,1965,601,B3,19,none
CN02,Canonical_None,suspinnus,30,-1,0,0,-1,602,B3,19,canonical
CN02,Canonical_None,gleanny,15,-1,1,0,-1,603,B3,19,canonical
CN02,Canonical_None,treddemus,18,4,0,0,1369,604,B3,19,canonical
CN02,Canonical_None,piddery,17,-1,0,0,-1,605,B3,19,canonical
CN02,Canonical_None,trecoddus,21,-1,1,0,-1,606,B3,19,canonical
CN02,Canonical_None,sleddow,7,4,0,0,2724,607,B3,19,canonical
CN02,Canonical_None,sceaneddy,23,4,0,0,1349,608,B3,20,canonical
CN02,Canonical_None,gleanny,15,4,1,1,354,609,B3,20,canonical
CN02,Canonical_None,credenner,29,-1,0,0,-1,610,B3,20,none
CN02,Canonical_None,suspinnus,30,-1,0,0,-1,611,B3,20,canonical
CN02,Canonical_None,senno,10,4,0,0,1771,612,B3,20,canonical
CN02,Canonical_None,trounny,13,4,1,1,1827,613,B3,20,none
CN02,Canonical_None,pribeddy,20,4,0,0,949,614,B3,20,none
CN02,Canonical_None,byddo,0,4,1,1,2491,615,B3,20,canonical
CN02,Canonical_None,slyddenee,16,-1,0,0,-1,616,B3,20,none
CN02,Canonical_None,prounner,11,4,1,1,450,617,B3,20,none
CN02,Canonical_None,vinnimal,26,-1,0,0,-1,618,B3,20,canonical
CN02,Canonical_None,bunnow,14,4,0,0,2538,619,B3,20,none
CN02,Canonical_None,cynnergus,25,4,1,1,576,620,B3,20,none
CN02,Canonical_None,vouddy,6,4,0,0,470,621,B3,20,none
CN02,Canonical_None,smounnus,12,4,0,0,801,622,B3,20,canonical
CN02,Canonical_None,glunner,9,4,1,1,99,623,B3,20,none
CN02,Canonical_None,sleddow,7,-1,0,0,-1,624,B3,20,canonical
CN02,Canonical_None,trecoddus,21,-1,1,0,-1,625,B3,20,canonical
CN02,Canonical_None,piddery,17,4,1,1,979,626,B3,20,canonical
CN02,Canonical_None,cluddee,2,4,1,1,2488,627,B3,20,none
CN02,Canonical_None,bliddus,3,4,1,1,813,628,B3,20,none
CN02,Canonical_None,lucrunny,31,4,1,1,869,629,B3,20,none
CN02,Canonical_None,veddetus,19,-1,1,0,-1,630,B3,20,none
CN02,Canonical_None,ruddow,4,-1,1,0,-1,631,B3,20,canonical
CN02,Canonical_None,bredenno,28,-1,1,0,-1,632,B3,20,canonical
CN02,Canonical_None,spearoddus,22,-1,1,0,-1,633,B3,20,none
CN02,Canonical_None,treddemus,18,4,1,1,1059,634,B3,20,canonical
CN02,Canonical_None,spennogy,27,4,1,1,2158,635,B3,20,none
CN02,Canonical_None,sounnerby,24,4,1,1,486,636,B3,20,canonical
CN02,Canonical_None,trenner,8,4,1,1,1503,637,B3,20,canonical
CN02,Canonical_None,fluddow,5,4,1,1,749,638,B3,20,none
CN02,Canonical_None,troddy,1,4,1,1,376,639,B3,20,canonical
CN03,Canonical_None,byddo,0,-1,1,0,-1,0,B1,1,canonical
CN03,Canonical_None,troddy,1,4,0,0,1114,1,B1,1,canonical
CN03,Canonical_None,senno,10,-1,1,0,-1,2,B1,1,canonical
CN03,Canonical_None,bliddus,3,-1,0,0,-1,3,B1,1,none
CN03,Canonical_None,vouddy,6,-1,0,0,-1,4,B1,1,none
CN03,Canonical_None,gleanny,15,-1,1,0,-1,5,B1,1,canonical
CN03,Canonical_None,ruddow,4,-1,0,0,-1,6,B1,1,canonical
CN03,Canonical_None,fluddow,5,-1,1,0,-1,7,B1,1,none
CN03,Canonical_None,glunner,9,-1,1,0,-1,8,B1,1,none
CN03,Canonical_None,suspinnus,30,-1,1,0,-1,9,B1,1,canonical
CN03,Canonical_None,bunnow,14,-1,0,0,-1,10,B1,1,none
CN03,Canonical_None,prounner,11,-1,1,0,-1,11,B1,1,none
CN03,Canonical_None,sleddow,7,-1,1,0,-1,12,B1,1,canonical
CN03,Canonical_None,smounnus,12,-1,0,0,-1,13,B1,1,canonical
CN03,Canonical_None,spennogy,27,-1,1,0,-1,14,B1,1,none
CN03,Canonical_None,piddery,17,-1,1,0,-1,15,B1,1,canonical
CN03,Canonical_None,vinnimal,26,-1,0,0,-1,16,B1,1,canonical
CN03,Canonical_None,lucrunny,31,-1,1,0,-1,17,B1,1,none
CN03,Canonical_None,sounnerby,24,-1,1,0,-1,18,B1,1,canonical
CN03,Canonical_None,sceaneddy,23,-1,0,0,-1,19,B1,1,canonical
CN03,Canonical_None,trenner,8,-1,1,0,-1,20,B1,1,canonical
CN03,Canonical_None,cynnergus,25,-1,1,0,-1,21,B1,1,none
CN03,Canonical_None,treddemus,18,-1,0,0,-1,22,B1,1,canonical
CN03,Canonical_None,pribeddy,20,-1,1,0,-1,23,B1,1,none
CN03,Canonical_None,veddetus,19,-1,0,0,-1,24,B1,1,none
CN03,Canonical_None,trounny,13,-1,0,0,-1,25,B1,1,none
CN03,Canonical_None,credenner,29,-1,1,0,-1,26,B1,1,none
CN03,Canonical_None,cluddee,2,-1,0,0,-1,27,B1,1,none
CN03,Canonical_None,slyddenee,16,-1,0,0,-1,28,B1,1,none
CN03,Canonical_None,spearoddus,22,-1,1,0,-1,29,B1,1,none
CN03,Canonical_None,bredenno,28,-1,0,0,-1,30,B1,1,canonical
CN03,Canonical_None,trecoddus,21,-1,1,0,-1,31,B1,1,canonical
CN03,Canonical_None,vinnimal,26,-1,1,0,-1,32,B1,2,canonical
CN03,Canonical_None,treddemus,18,-1,1,0,-1,33,B1,2,canonical
CN03,Canonical_None,ruddow,4,-1,1,0,-1,34,B1,2,canonical
CN03,Canonical_None,spennogy,27,-1,0,0,-1,35,B1,2,none
CN03,Canonical_None,cluddee,2,-1,1,0,-1,36,B1,2,none
CN03,Canonical_None,byddo,0,-1,1,0,-1,37,B1,2,canonical
CN03,Canonical_None,fluddow,5,-1,1,0,-1,38,B1,2,none
CN03,Canonical_None,sleddow,7,-1,1,0,-1,39,B1,2,canonical
CN03,Canonical_None,piddery,17,-1,0,0,-1,40,B1,2,canonical
CN03,Canonical_None,sounnerby,24,-1,1,0,-1,41,B1,2,canonical
CN03,Canonical_None,bredenno,28,-1,1,0,-1,42,B1,2,canonical
CN03,Canonical_None,lucrunny,31,-1,0,0,-1,43,B1,2,none
CN03,Canonical_None,smounnus,12,-1,0,0,-1,44,B1,2,canonical
CN03,Canonical_None,spearoddus,22,-1,0,0,-1,45,B1,2,none
CN03,Canonical_None,vouddy,6,-1,0,0,-1,46,B1,2,none
CN03,Canonical_None,veddetus,19,-1,0,0,-1,47,B1,2,none
CN03,Canonical_None,troddy,1,-1,1,0,-1,48,B1,2,canonical
CN03,Canonical_None,trecoddus,21,-1,0,0,-1,49,B1,2,canonical
CN03,Canonical_None,gleanny,15,-1,0,0,-1,50,B1,2,canonical
CN03,Canonical_None,senno,10,-1,0,0,-1,51,B1,2,canonical
CN03,Canonical_None,bunnow,14,-1,1,0,-1,52,B1,2,none
CN03,Canonical_None,suspinnus,30,-1,1,0,-1,53,B1,2,canonical
CN03,Canonical_None,cynnergus,25,-1,0,0,-1,54,B1,2,none
CN03,Canonical_None,trounny,13,-1,0,0,-1,55,B1,2,none
CN03,Canonical_None,glunner,9,-1,0,0,-1,56,B1,2,none
CN03,Canonical_None,credenner,29,-1,0,0,-1,57,B1,2,none
CN03,Canonical_None,pribeddy,20,-1,1,0,-1,58,B1,2,none
CN03,Canonical_None,bliddus,3,-1,1,0,-1,59,B1,2,none
CN03,Canonical_None,prounner,11,-1,1,0,-1,60,B1,2,none
CN03,Canonical_None,trenner,8,-1,1,0,-1,61,B1,2,canonical
CN03,Canonical_None,slyddenee,16,-1,0,0,-1,62,B1,2,none
CN03,Canonical_None,sceaneddy,23,-1,0,0,-1,63,B1,2,canonical
CN03,Canonical_None,byddo,0,-1,0,0,-1,64,B1,3,canonical
CN03,Canonical_None,ruddow,4,-1,0,0,-1,65,B1,3,canonical
CN03,Canonical_None,trenner,8,-1,0,0,-1,66,B1,3,canonical
CN03,Canonical_None,cluddee,2,-1,0,0,-1,67,B1,3,none
CN03,Canonical_None,spennogy,27,-1,1,0,-1,68,B1,3,none
CN03,Canonical_None,trecoddus,21,-1,0,0,-1,69,B1,3,canonical
CN03,Canonical_None,pribeddy,20,-1,0,0,-1,70,B1,3,none
CN03,Canonical_None,sounnerby,24,-1,0,0,-1,71,B1,3,canonical
CN03,Canonical_None,smounnus,12,-1,0,0,-1,72,B1,3,canonical
CN03,Canonical_None,suspinnus,30,-1,1,0,-1,73,B1,3,canonical
CN03,Canonical_None,trounny,13,-1,0,0,-1,74,B1,3,none
CN03,Canonical_None,vouddy,6,-1,1,0,-1,75,B1,3,none
CN03,Canonical_None,bredenno,28,-1,1,0,-1,76,B1,3,canonical
CN03,Canonical_None,lucrunny,31,-1,1,0,-1,77,B1,3,none
CN03,Canonical_None,bliddus,3,-1,1,0,-1,78,B1,3,none
CN03,Canonical_None,veddetus,19,-1,1,0,-1,79,B1,3,none
CN03,Canonical_None,gleanny,15,-1,1,0,-1,80,B1,3,canonical
CN03,Canonical_None,cynnergus,25,-1,0,0,-1,81,B1,3,none
CN03,Canonical_None,credenner,29,-1,1,0,-1,82,B1,3,none
CN03,Canonical_None,spearoddus,22,-1,0,0,-1,83,B1,3,none
CN03,Canonical_None,vinnimal,26,-1,0,0,-1,84,B1,3,canonical
CN03,Canonical_None,prounner,11,-1,1,0,-1,85,B1,3,none
CN03,Canonical_None,slyddenee,16,-1,1,0,-1,86,B1,3,none
CN03,Canonical_None,piddery,17,-1,1,0,-1,87,B1,3,canonical
CN03,Canonical_None,sceaneddy,23,-1,0,0,-1,88,B1,3,canonical
CN03,Canonical_None,troddy,1,-1,1,0,-1,89,B1,3,canonical
CN03,Canonical_None,sleddow,7,-1,1,0,-1,90,B1,3,canonical
CN03,Canonical_None,senno,10,-1,0,0,-1,91,B1,3,canonical
CN03,Canonical_None,fluddow,5,-1,0,0,-1,92,B1,3,none
CN03,Canonical_None,bunnow,14,-1,1,0,-1,93,B1,3,none
CN03,Canonical_None,glunner,9,-1,0,0,-1,94,B1,3,none
CN03,Canonical_None,treddemus,18,-1,0,0,-1,95,B1,3,canonical
CN03,Canonical_None,bunnow,14,-1,0,0,-1,96,B1,4,none
CN03,Canonical_None,vouddy,6,-1,1,0,-1,97,B1,4,none
CN03,Canonical_None,veddetus,19,-1,1,0,-1,98,B1,4,none
CN03,Canonical_None,sleddow,7,-1,1,0,-1,99,B1,4,canonical
CN03,Canonical_None,trenner,8,-1,1,0,-1,100,B1,4,canonical
CN03,Canonical_None,sceaneddy,23,-1,0,0,-1,101,B1,4,canonical
CN03,Canonical_None,bliddus,3,-1,1,0,-1,102,B1,4,none
CN03,Canonical_None,fluddow,5,-1,0,0,-1,103,B1,4,none
CN03,Canonical_None,ruddow,4,-1,1,0,-1,104,B1,4,canonical
CN03,Canonical_None,smounnus,12,-1,0,0,-1,105,B1,4,canonical
CN03,Canonical_None,trecoddus,21,-1,1,0,-1,106,B1,4,canonical
CN03,Canonical_None,slyddenee,16,-1,0,0,-1,107,B1,4,none
CN03,Canonical_None,glunner,9,-1,1,0,-1,108,B1,4,none
CN03,Canonical_None,senno,10,-1,0,0,-1,109,B1,4,canonical
CN03,Canonical_None,piddery,17,-1,1,0,-1,110,B1,4,canonical
CN03,Canonical_None,spearoddus,22,-1,0,0,-1,111,B1,4,none
CN03,Canonical_None,prounner,11,-1,0,0,-1,112,B1,4,none
CN03,Canonical_None,spennogy,27,-1,1,0,-1,113,B1,4,none
CN03,Canonical_None,gleanny,15,-1,0,0,-1,114,B1,4,canonical
CN03,Canonical_None,bredenno,28,-1,1,0,-1,115,B1,4,canonical
CN03,Canonical_None,troddy,1,-1,0,0,-1,116,B1,4,canonical
CN03,Canonical_None,pribeddy,20,-1,0,0,-1,117,B1,4,none
CN03,Canonical_None,credenner,29,-1,1,0,-1,118,B1,4,none
CN03,Canonical_None,vinnimal,26,-1,1,0,-1,119,B1,4,canonical
CN03,Canonical_None,sounnerby,24,-1,0,0,-1,120,B1,4,canonical
CN03,Canonical_None,byddo,0,-1,1,0,-1,121,B1,4,canonical
CN03,Canonical_None,trounny,13,-1,1,0,-1,122,B1,4,none
CN03,Canonical_None,treddemus,18,-1,0,0,-1,123,B1,4,canonical
CN03,Canonical_None,cluddee,2,-1,0,0,-1,124,B1,4,none
CN03,Canonical_None,lucrunny,31,-1,1,0,-1,125,B1,4,none
CN03,Canonical_None,suspinnus,30,-1,0,0,-1,126,B1,4,canonical
CN03,Canonical_None,cynnergus,25,-1,0,0,-1,127,B1,4,none
CN03,Canonical_None,smounnus,12,-1,0,0,-1,128,B1,5,canonical
CN03,Canonical_None,troddy,1,-1,0,0,-1,129,B1,5,canonical
CN03,Canonical_None,bredenno,28,-1,1,0,-1,130,B1,5,canonical
CN03,Canonical_None,slyddenee,16,-1,0,0,-1,131,B1,5,none
CN03,Canonical_None,cynnergus,25,-1,0,0,-1,132,B1,5,none
CN03,Canonical_None,spearoddus,22,-1,1,0,-1,133,B1,5,none
CN03,Canonical_None,fluddow,5,-1,1,0,-1,134,B1,5,none
CN03,Canonical_None,pribeddy,20,-1,0,0,-1,135,B1,5,none
CN03,Canonical_None,ruddow,4,-1,0,0,-1,136,B1,5,canonical
CN03,Canonical_None,trenner,8,-1,0,0,-1,137,B1,5,canonical
CN03,Canonical_None,prounner,11,-1,0,0,-1,138,B1,5,none
CN03,Canonical_None,vouddy,6,-1,0,0,-1,139,B1,5,none
CN03,Canonical_None,credenner,29,-1,0,0,-1,140,B1,5,none
CN03,Canonical_None,sceaneddy,23,-1,1,0,-1,141,B1,5,canonical
CN03,Canonical_None,glunner,9,-1,1,0,-1,142,B1,5,none
CN03,Canonical_None,trounny,13,-1,0,0,-1,143,B1,5,none
CN03,Canonical_None,bliddus,3,-1,0,0,-1,144,B1,5,none
CN03,Canonical_None,spennogy,27,-1,0,0,-1,145,B1,5,none
CN03,Canonical_None,lucrunny,31,-1,1,0,-1,146,B1,5,none
CN03,Canonical_None,veddetus,19,-1,0,0,-1,147,B1,5,none
CN03,Canonical_None,cluddee,2,-1,1,0,-1,148,B1,5,none
CN03,Canonical_None,senno,10,-1,1,0,-1,149,B1,5,canonical
CN03,Canonical_None,vinnimal,26,-1,1,0,-1,150,B1,5,canonical
CN03,Canonical_None,byddo,0,-1,1,0,-1,151,B1,5,canonical
CN03,Canonical_None,sounnerby,24,-1,1,0,-1,152,B1,5,canonical
CN03,Canonical_None,bunnow,14,-1,0,0,-1,153,B1,5,none
CN03,Canonical_None,suspinnus,30,-1,0,0,-1,154,B1,5,canonical
CN03,Canonical_None,gleanny,15,-1,1,0,-1,155,B1,5,canonical
CN03,Canonical_None,treddemus,18,-1,0,0,-1,156,B1,5,canonical
CN03,Canonical_None,piddery,17,1,0,0,905,157,B1,5,canonical
CN03,Canonical_None,trecoddus,21,4,1,1,880,158,B1,5,canonical
CN03,Canonical_None,sleddow,7,1,0,1,720,159,B1,5,canonical
CN03,Canonical_None,sceaneddy,23,4,0,0,850,160,B1,6,canonical
CN03,Canonical_None,gleanny,15,4,1,1,703,161,B1,6,canonical
CN03,Canonical_None,credenner,29,1,0,1,581,162,B1,6,none
CN03,Canonical_None,suspinnus,30,1,0,1,631,163,B1,6,canonical
CN03,Canonical_None,senno,10,1,0,1,825,164,B1,6,canonical
CN03,Canonical_None,trounny,13,4,1,1,515,165,B1,6,none
CN03,Canonical_None,pribeddy,20,1,0,1,1549,166,B1,6,none
CN03,Canonical_None,byddo,0,4,1,1,876,167,B1,6,canonical
CN03,Canonical_None,slyddenee,16,1,0,1,726,168,B1,6,none
CN03,Canonical_None,prounner,11,4,1,0,473,169,B1,6,none
CN03,Canonical_None,vinnimal,26,1,0,0,870,170,B1,6,canonical
CN03,Canonical_None,bunnow,14,4,0,0,1198,171,B1,6,none
CN03,Canonical_None,cynnergus,25,4,1,1,784,172,B1,6,none
CN03,Canonical_None,vouddy,6,1,0,1,506,173,B1,6,none
CN03,Canonical_None,smounnus,12,1,0,1,859,174,B1,6,canonical
CN03,Canonical_None,glunner,9,4,1,1,485,175,B1,6,none
CN03,Canonical_None,sleddow,7,1,0,1,518,176,B1,6,canonical
CN03,Canonical_None,trecoddus,21,4,1,1,834,177,B1,6,canonical
CN03,Canonical_None,piddery,17,4,1,1,315,178,B1,6,canonical
CN03,Canonical_None,cluddee,2,4,1,1,627,179,B1,6,none
CN03,Canonical_None,bliddus,3,1,1,0,605,180,B1,6,none
CN03,Canonical_None,lucrunny,31,4,1,1,863,181,B1,6,none
CN03,Canonical_None,veddetus,19,4,1,1,710,182,B1,6,none
CN03,Canonical_None,ruddow,4,4,1,1,652,183,B1,6,canonical
CN03,Canonical_None,bredenno,28,4,1,1,529,184,B1,6,canonical
CN03,Canonical_None,spearoddus,22,4,1,1,661,185,B1,6,none
CN03,Canonical_None,treddemus,18,1,1,0,466,186,B1,6,canonical
CN03,Canonical_None,spennogy,27,4,1,1,1137,187,B1,6,none
CN03,Canonical_None,sounnerby,24,4,1,1,1174,188,B1,6,canonical
CN03,Canonical_None,trenner,8,4,1,1,911,189,B1,6,canonical
CN03,Canonical_None,fluddow,5,4,1,1,593,190,B1,6,none
CN03,Canonical_None,troddy,1,4,1,1,714,191,B1,6,canonical
CN03,Canonical_None,bredenno,28,4,1,1,479,192,B1,7,canonical
CN03,Canonical_None,piddery,17,4,1,1,365,193,B1,7,canonical
CN03,Canonical_None,pribeddy,20,4,1,1,600,194,B1,7,none
CN03,Canonical_None,slyddenee,16,1,0,1,944,195,B1,7,none
CN03,Canonical_None,gleanny,15,4,1,1,820,196,B1,7,canonical
CN03,Canonical_None,trecoddus,21,1,0,1,654,197,B1,7,canonical
CN03,Canonical_None,fluddow,5,1,0,1,626,198,B1,7,none
CN03,Canonical_None,credenner,29,4,1,1,429,199,B1,7,none
CN03,Canonical_None,sounnerby,24,1,0,1,632,200,B1,7,canonical
CN03,Canonical_None,sceaneddy,23,1,0,1,879,201,B1,7,canonical
CN03,Canonical_None,sleddow,7,4,1,1,939,202,B1,7,canonical
CN03,Canonical_None,trenner,8,1,0,1,559,203,B1,7,canonical
CN03,Canonical_None,vinnimal,26,1,0,1,482,204,B1,7,canonical
CN03,Canonical_None,spearoddus,22,1,0,1,587,205,B1,7,none
CN03,Canonical_None,ruddow,4,1,0,1,664,206,B1,7,canonical
CN03,Canonical_None,bliddus,3,1,0,1,825,207,B1,7,none
CN03,Canonical_None,bunnow,14,4,1,1,569,208,B1,7,none
CN03,Canonical_None,trounny,13,4,1,1,463,209,B1,7,none
CN03,Canonical_None,suspinnus,30,1,1,0,860,210,B1,7,canonical
CN03,Canonical_None,senno,10,1,0,1,612,211,B1,7,canonical
CN03,Canonical_None,cluddee,2,4,1,1,452,212,B1,7,none
CN03,Canonical_None,smounnus,12,4,1,1,732,213,B1,7,canonical
CN03,Canonical_None,spennogy,27,1,0,1,671,214,B1,7,none
CN03,Canonical_None,vouddy,6,4,1,1,359,215,B1,7,none
CN03,Canonical_None,byddo,0,1,0,1,631,216,B1,7,canonical
CN03,Canonical_None,veddetus,19,1,0,1,560,217,B1,7,none
CN03,Canonical_None,cynnergus,25,4,1,1,775,218,B1,7,none
CN03,Canonical_None,treddemus,18,1,0,1,650,219,B1,7,canonical
CN03,Canonical_None,glunner,9,1,0,1,727,220,B1,7,none
CN03,Canonical_None,lucrunny,31,4,1,1,757,221,B1,7,none
CN03,Canonical_None,troddy,1,1,0,1,1052,222,B1,7,canonical
CN03,Canonical_None,prounner,11,4,1,1,671,223,B1,7,none
CN03,Canonical_None,byddo,0,4,1,1,2081,224,B2,8,canonical
CN03,Canonical_None,troddy,1,1,0,1,584,225,B2,8,canonical
CN03,Canonical_None,senno,10,4,1,1,728,226,B2,8,canonical
CN03,Canonical_None,bliddus,3,1,0,1,446,227,B2,8,none
CN03,Canonical_None,vouddy,6,1,0,1,374,228,B2,8,none
CN03,Canonical_None,gleanny,15,4,1,1,511,229,B2,8,canonical
CN03,Canonical_None,ruddow,4,1,0,1,454,230,B2,8,canonical
CN03,Canonical_None,fluddow,5,4,1,1,597,231,B2,8,none
CN03,Canonical_None,glunner,9,4,1,1,652,232,B2,8,none
CN03,Canonical_None,suspinnus,30,4,1,1,617,233,B2,8,canonical
CN03,Canonical_None,bunnow,14,1,0,0,771,234,B2,8,none
CN03,Canonical_None,prounner,11,4,1,1,558,235,B2,8,none
CN03,Canonical_None,sleddow,7,4,1,1,578,236,B2,8,canonical
CN03,Canonical_None,smounnus,12,1,0,1,674,237,B2,8,canonical
CN03,Canonical_None,spennogy,27,4,1,1,813,238,B2,8,none
CN03,Canonical_None,piddery,17,4,1,1,454,239,B2,8,canonical
CN03,Canonical_None,vinnimal,26,1,0,1,497,240,B2,8,canonical
CN03,Canonical_None,lucrunny,31,4,1,1,799,241,B2,8,none
CN03,Canonical_None,sounnerby,24,4,1,1,702,242,B2,8,canonical
CN03,Canonical_None,sceaneddy,23,1,0,0,1518,243,B2,8,canonical
CN03,Canonical_None,trenner,8,4,1,1,487,244,B2,8,canonical
CN03,Canonical_None,cynnergus,25,1,1,0,656,245,B2,8,none
CN03,Canonical_None,treddemus,18,1,0,1,564,246,B2,8,canonical
CN03,Canonical_None,pribeddy,20,4,1,1,530,247,B2,8,none
CN03,Canonical_None,veddetus,19,1,0,1,739,248,B2,8,none
CN03,Canonical_None,trounny,13,1,0,1,690,249,B2,8,none
CN03,Canonical_None,credenner,29,4,1,1,436,250,B2,8,none
CN03,Canonical_None,cluddee,2,1,0,0,648,251,B2,8,none
CN03,Canonical_None,slyddenee,16,1,0,1,673,252,B2,8,none
CN03,Canonical_None,spearoddus,22,4,1,1,565,253,B2,8,none
CN03,Canonical_None,bredenno,28,1,0,1,454,254,B2,8,canonical
CN03,Canonical_None,trecoddus,21,4,1,1,820,255,B2,8,canonical
CN03,Canonical_None,vinnimal,26,4,1,1,380,256,B2,9,canonical
CN03,Canonical_None,treddemus,18,4,1,1,743,257,B2,9,canonical
CN03,Canonical_None,ruddow,4,4,1,1,504,258,B2,9,canonical
CN03,Canonical_None,spennogy,27,1,0,1,755,259,B2,9,none
CN03,Canonical_None,cluddee,2,4,1,1,564,260,B2,9,none
CN03,Canonical_None,byddo,0,4,1,1,715,261,B2,9,canonical
CN03,Canonical_None,fluddow,5,4,1,1,655,262,B2,9,none
CN03,Canonical_None,sleddow,7,4,1,1,694,263,B2,9,canonical
CN03,Canonical_None,piddery,17,1,0,1,380,264,B2,9,canonical
CN03,Canonical_None,sounnerby,24,4,1,1,697,265,B2,9,canonical
CN03,Canonical_None,bredenno,28,4,1,1,588,266,B2,9,canonical
CN03,Canonical_None,lucrunny,31,1,0,1,737,267,B2,9,none
CN03,Canonical_None,smounnus,12,1,0,0,987,268,B2,9,canonical
CN03,Canonical_None,spearoddus,22,4,0,0,751,269,B2,9,none
CN03,Canonical_None,vouddy,6,1,0,1,626,270,B2,9,none
CN03,Canonical_None,veddetus,19,1,0,1,811,271,B2,9,none
CN03,Canonical_None,troddy,1,4,1,1,571,272,B2,9,canonical
CN03,Canonical_None,trecoddus,21,1,0,1,883,273,B2,9,canonical
CN03,Canonical_None,gleanny,15,4,0,0,813,274,B2,9,canonical
CN03,Canonical_None,senno,10,1,0,1,814,275,B2,9,canonical
CN03,Canonical_None,bunnow,14,4,1,1,763,276,B2,9,none
CN03,Canonical_None,suspinnus,30,4,1,1,698,277,B2,9,canonical
CN03,Canonical_None,cynnergus,25,1,0,1,683,278,B2,9,none
CN03,Canonical_None,trounny,13,1,0,1,710,279,B2,9,none
CN03,Canonical_None,glunner,9,1,0,1,718,280,B2,9,none
CN03,Canonical_None,credenner,29,1,0,1,584,281,B2,9,none
CN03,Canonical_None,pribeddy,20,4,1,1,496,282,B2,9,none
CN03,Canonical_None,bliddus,3,4,1,1,508,283,B2,9,none
CN03,Canonical_None,prounner,11,4,1,1,510,284,B2,9,none
CN03,Canonical_None,trenner,8,4,1,0,626,285,B2,9,canonical
CN03,Canonical_None,slyddenee,16,1,0,1,549,286,B2,9,none
CN03,Canonical_None,sceaneddy,23,4,0,0,818,287,B2,9,canonical
CN03,Canonical_None,byddo,0,1,0,1,578,288,B2,10,canonical
CN03,Canonical_None,ruddow,4,1,0,1,642,289,B2,10,canonical
CN03,Canonical_None,trenner,8,1,0,1,486,290,B2,10,canonical
CN03,Canonical_None,cluddee,2,1,0,0,531,291,B2,10,none
CN03,Canonical_None,spennogy,27,4,1,1,744,292,B2,10,none
CN03,Canonical_None,trecoddus,21,1,0,1,648,293,B2,10,canonical
CN03,Canonical_None,pribeddy,20,1,0,1,1092,294,B2,10,none
CN03,Canonical_None,sounnerby,24,1,0,1,738,295,B2,10,canonical
CN03,Canonical_None,smounnus,12,1,0,1,702,296,B2,10,canonical
CN03,Canonical_None,suspinnus,30,4,1,1,553,297,B2,10,canonical
CN03,Canonical_None,trounny,13,1,0,1,568,298,B2,10,none
CN03,Canonical_None,vouddy,6,4,1,1,459,299,B2,10,none
CN03,Canonical_None,bredenno,28,4,1,1,483,300,B2,10,canonical
CN03,Canonical_None,lucrunny,31,4,1,1,550,301,B2,10,none
CN03,Canonical_None,bliddus,3,4,1,1,539,302,B2,10,none
CN03,Canonical_None,veddetus,19,4,1,1,597,303,B2,10,none
CN03,Canonical_None,gleanny,15,4,1,1,749,304,B2,10,canonical
CN03,Canonical_None,cynnergus,25,1,0,1,1241,305,B2,10,none
CN03,Canonical_None,credenner,29,4,1,1,778,306,B2,10,none
CN03,Canonical_None,spearoddus,22,1,0,1,711,307,B2,10,none
CN03,Canonical_None,vinnimal,26,1,0,1,605,308,B2,10,canonical
CN03,Canonical_None,prounner,11,4,1,1,789,309,B2,10,none
CN03,Canonical_None,slyddenee,16,4,1,1,732,310,B2,10,none
CN03,Canonical_None,piddery,17,4,1,1,559,311,B2,10,canonical
CN03,Canonical_None,sceaneddy,23,1,0,1,901,312,B2,10,canonical
CN03,Canonical_None,troddy,1,4,1,1,821,313,B2,10,canonical
CN03,Canonical_None,sleddow,7,4,1,1,599,314,B2,10,canonical
CN03,Canonical_None,senno,10,1,0,0,598,315,B2,10,canonical
CN03,Canonical_None,fluddow,5,1,0,1,442,316,B2,10,none
CN03,Canonical_None,bunnow,14,4,1,1,613,317,B2,10,none
CN03,Canonical_None,glunner,9,1,0,0,777,318,B2,10,none
CN03,Canonical_None,treddemus,18,1,0,1,433,319,B2,10,canonical
CN03,Canonical_None,bunnow,14,1,0,1,575,320,B2,11,none
CN03,Canonical_None,vouddy,6,1,1,0,521,321,B2,11,none
CN03,Canonical_None,veddetus,19,4,1,1,576,322,B2,11,none
CN03,Canonical_None,sleddow,7,1,1,0,758,323,B2,11,canonical
CN03,Canonical_None,trenner,8,4,1,1,613,324,B2,11,canonical
CN03,Canonical_None,sceaneddy,23,1,0,1,659,325,B2,11,canonical
CN03,Canonical_None,bliddus,3,4,1,1,539,326,B2,11,none
CN03,Canonical_None,fluddow,5,1,0,1,711,327,B2,11,none
CN03,Canonical_None,ruddow,4,4,1,1,570,328,B2,11,canonical
CN03,Canonical_None,smounnus,12,1,0,1,550,329,B2,11,canonical
CN03,Canonical_None,trecoddus,21,4,1,1,608,330,B2,11,canonical
CN03,Canonical_None,slyddenee,16,1,0,1,702,331,B2,11,none
CN03,Canonical_None,glunner,9,4,1,1,654,332,B2,11,none
CN03,Canonical_None,senno,10,1,0,0,844,333,B2,11,canonical
CN03,Canonical_None,piddery,17,4,1,1,410,334,B2,11,canonical
CN03,Canonical_None,spearoddus,22,1,0,1,611,335,B2,11,none
CN03,Canonical_None,prounner,11,1,0,1,633,336,B2,11,none
CN03,Canonical_None,spennogy,27,4,1,1,905,337,B2,11,none
CN03,Canonical_None,gleanny,15,1,0,1,538,338,B2,11,canonical
CN03,Canonical_None,bredenno,28,4,1,1,667,339,B2,11,canonical
CN03,Canonical_None,troddy,1,1,0,1,771,340,B2,11,canonical
CN03,Canonical_None,pribeddy,20,4,0,0,582,341,B2,11,none
CN03,Canonical_None,credenner,29,4,1,1,603,342,B2,11,none
CN03,Canonical_None,vinnimal,26,4,1,1,456,343,B2,11,canonical
CN03,Canonical_None,sounnerby,24,1,0,1,579,344,B2,11,canonical
CN03,Canonical_None,byddo,0,4,1,1,564,345,B2,11,canonical
CN03,Canonical_None,trounny,13,4,1,1,1072,346,B2,11,none
CN03,Canonical_None,treddemus,18,1,0,1,489,347,B2,11,canonical
CN03,Canonical_None,cluddee,2,1,0,1,444,348,B2,11,none
CN03,Canonical_None,lucrunny,31,4,1,1,513,349,B2,11,none
CN03,Canonical_None,suspinnus,30,1,0,1,536,350,B2,11,canonical
CN03,Canonical_None,cynnergus,25,1,0,1,584,351,B2,11,none
CN03,Canonical_None,smounnus,12,1,0,1,708,352,B2,12,canonical
CN03,Canonical_None,troddy,1,4,0,0,553,353,B2,12,canonical
CN03,Canonical_None,bredenno,28,4,1,1,415,354,B2,12,canonical
CN03,Canonical_None,slyddenee,16,1,0,1,550,355,B2,12,none
CN03,Canonical_None,cynnergus,25,1,0,1,733,356,B2,12,none
CN03,Canonical_None,spearoddus,22,4,1,1,557,357,B2,12,none
CN03,Canonical_None,fluddow,5,4,1,1,382,358,B2,12,none
CN03,Canonical_None,pribeddy,20,1,0,1,554,359,B2,12,none
CN03,Canonical_None,ruddow,4,1,0,1,576,360,B2,12,canonical
CN03,Canonical_None,trenner,8,1,0,1,672,361,B2,12,canonical
CN03,Canonical_None,prounner,11,1,0,1,462,362,B2,12,none
CN03,Canonical_None,vouddy,6,1,0,1,623,363,B2,12,none
CN03,Canonical_None,credenner,29,1,0,1,634,364,B2,12,none
CN03,Canonical_None,sceaneddy,23,4,1,1,770,365,B2,12,canonical
CN03,Canonical_None,glunner,9,4,1,1,466,366,B2,12,none
CN03,Canonical_None,trounny,13,1,0,1,500,367,B2,12,none
CN03,Canonical_None,bliddus,3,4,0,0,663,368,B2,12,none
CN03,Canonical_None,spennogy,27,1,0,1,692,369,B2,12,none
CN03,Canonical_None,lucrunny,31,4,1,1,717,370,B2,12,none
CN03,Canonical_None,veddetus,19,1,0,1,540,371,B2,12,none
CN03,Canonical_None,cluddee,2,4,1,1,768,372,B2,12,none
CN03,Canonical_None,senno,10,4,1,1,682,373,B2,12,canonical
CN03,Canonical_None,vinnimal,26,4,1,1,859,374,B2,12,canonical
CN03,Canonical_None,byddo,0,4,1,0,739,375,B2,12,canonical
CN03,Canonical_None,sounnerby,24,4,1,1,781,376,B2,12,canonical
CN03,Canonical_None,bunnow,14,1,0,1,524,377,B2,12,none
CN03,Canonical_None,suspinnus,30,1,0,1,710,378,B2,12,canonical
CN03,Canonical_None,gleanny,15,4,1,1,471,379,B2,12,canonical
CN03,Canonical_None,treddemus,18,1,0,1,469,380,B2,12,canonical
CN03,Canonical_None,piddery,17,1,0,1,405,381,B2,12,canonical
CN03,Canonical_None,trecoddus,21,4,1,1,511,382,B2,12,canonical
CN03,Canonical_None,sleddow,7,1,0,0,823,383,B2,12,canonical
CN03,Canonical_None,sceaneddy,23,1,0,1,1341,384,B2,13,canonical
CN03,Canonical_None,gleanny,15,4,1,1,403,385,B2,13,canonical
CN03,Canonical_None,credenner,29,1,0,1,539,386,B2,13,none
CN03,Canonical_None,suspinnus,30,1,0,1,674,387,B2,13,canonical
CN03,Canonical_None,senno,10,4,0,0,527,388,B2,13,canonical
CN03,Canonical_None,trounny,13,4,1,1,696,389,B2,13,none
CN03,Canonical_None,pribeddy,20,1,0,1,502,390,B2,13,none
CN03,Canonical_None,byddo,0,4,1,1,603,391,B2,13,canonical
CN03,Canonical_None,slyddenee,16,1,0,1,832,392,B2,13,none
CN03,Canonical_None,prounner,11,4,1,1,538,393,B2,13,none
CN03,Canonical_None,vinnimal,26,1,0,1,477,394,B2,13,canonical
CN03,Canonical_None,bunnow,14,1,0,1,642,395,B2,13,none
CN03,Canonical_None,cynnergus,25,4,1,1,844,396,B2,13,none
CN03,Canonical_None,vouddy,6,1,0,1,523,397,B2,13,none
CN03,Canonical_None,smounnus,12,1,0,1,662,398,B2,13,canonical
CN03,Canonical_None,glunner,9,4,1,1,600,399,B2,13,none
CN03,Canonical_None,sleddow,7,1,0,1,720,400,B2,13,canonical
CN03,Canonical_None,trecoddus,21,4,1,1,714,401,B2,13,canonical
CN03,Canonical_None,piddery,17,4,1,1,488,402,B2,13,canonical
CN03,Canonical_None,cluddee,2,4,1,1,591,403,B2,13,none
CN03,Canonical_None,bliddus,3,1,1,0,943,404,B2,13,none
CN03,Canonical_None,lucrunny,31,4,1,1,776,405,B2,13,none
CN03,Canonical_None,veddetus,19,4,1,1,795,406,B2,13,none
CN03,Canonical_None,ruddow,4,4,1,1,602,407,B2,13,canonical
CN03,Canonical_None,bredenno,28,4,1,1,659,408,B2,13,canonical
CN03,Canonical_None,spearoddus,22,4,1,1,666,409,B2,13,none
CN03,Canonical_None,treddemus,18,4,1,1,453,410,B2,13,canonical
CN03,Canonical_None,spennogy,27,4,1,1,888,411,B2,13,none
CN03,Canonical_None,sounnerby,24,4,1,1,586,412,B2,13,canonical
CN03,Canonical_None,trenner,8,4,1,1,554,413,B2,13,canonical
CN03,Canonical_None,fluddow,5,4,1,1,606,414,B2,13,none
CN03,Canonical_None,troddy,1,4,1,0,630,415,B2,13,canonical
CN03,Canonical_None,bredenno,28,4,1,1,555,416,B2,14,canonical
CN03,Canonical_None,piddery,17,4,1,1,436,417,B2,14,canonical
CN03,Canonical_None,pribeddy,20,4,1,1,561,418,B2,14,none
CN03,Canonical_None,slyddenee,16,1,0,1,889,419,B2,14,none
CN03,Canonical_None,gleanny,15,4,1,1,730,420,B2,14,canonical
CN03,Canonical_None,trecoddus,21,1,0,1,674,421,B2,14,canonical
CN03,Canonical_None,fluddow,5,4,0,0,732,422,B2,14,none
CN03,Canonical_None,credenner,29,4,1,1,501,423,B2,14,none
CN03,Canonical_None,sounnerby,24,1,0,1,606,424,B2,14,canonical
CN03,Canonical_None,sceaneddy,23,1,0,1,786,425,B2,14,canonical
CN03,Canonical_None,sleddow,7,1,1,0,651,426,B2,14,canonical
CN03,Canonical_None,trenner,8,1,0,1,389,427,B2,14,canonical
CN03,Canonical_None,vinnimal,26,1,0,1,528,428,B2,14,canonical
